time,seconds_elapsed,z,y,x
1684252521602589200,0.024589111328125,0.5054553672343493,0.5405807488903402,2.829994877621531
1684252521612615200,0.034615234375,1.1573474963605404,3.217559778490662,1.6102080223523079
1684252521622641200,0.04464111328125,1.0526005892068147,4.509491394124925,0.8219253090523183
1684252521632667100,0.054667236328125,0.6530412991613149,3.3934354008346794,0.5212705933405086
1684252521642693000,0.064693115234375,0.6359814432889223,2.531066876104474,0.09640022682994603
1684252521652719000,0.074718994140625,0.8555635208904743,2.1426988421589135,-0.4803457681581378
1684252521662745900,0.084745849609375,1.562658481800556,2.2004203787654637,-1.1232143406122923
1684252521672771000,0.09477099609375,3.178520146000385,0.5188087698042393,-0.8826986344449221
1684252521682798000,0.104798095703125,2.4097920279979705,0.34883418819755313,-0.4074659715168178
1684252521692824000,0.114823974609375,1.162056989225745,0.4968944596379995,-0.023638065218925475
1684252521702850000,0.12485009765625,-1.0815011049985885,0.3819347860276699,0.8809154042899608
1684252521712876000,0.1348759765625,-4.780907411599159,-0.9754133046299218,-0.8601892079297453
1684252521722902000,0.144902099609375,-13.86436121071577,-9.41555517143905,-10.989738671338557
1684252521732928000,0.154927978515625,-4.135800412568449,-3.0503058540195225,-3.837751239712536
1684252521742954000,0.1649541015625,2.103935688522458,6.951787807625532,3.113699006521702
1684252521752980000,0.17497998046875,0.8329957152515649,9.974650943446159,0.9468636481024324
1684252521763006000,0.185005859375,0.9790805949658155,8.531236096185445,0.4744787758208811
1684252521773032000,0.195031982421875,1.9201573302298782,7.037915354505181,1.8742226775288582
1684252521783058000,0.205057861328125,3.1634184384584425,7.211746903800964,2.338900336433947
1684252521793084200,0.215084228515625,5.073215118193626,8.557548349049688,0.04792699556201696
1684252521803110100,0.225110107421875,5.91863250812292,10.413886410319805,-2.7844080154448747
1684252521813136100,0.23513623046875,7.50836487480998,11.21176346591711,-5.003375273770094
1684252521823162000,0.245162109375,10.842773501658439,10.777539689725637,-7.444163328534365
1684252521833188000,0.25518798828125,8.62238643966317,12.669037327182291,-6.1952265127569435
1684252521843214000,0.265214111328125,8.801941042780875,13.436617444193363,-5.9681964572370045
1684252521853240000,0.275239990234375,8.17706317730844,13.694759846335648,-5.43257508431971
1684252521863266000,0.28526611328125,6.750214264923334,13.897978233635424,-5.394912585401535
1684252521873292000,0.2952919921875,5.3439516289711,13.85921507999897,-4.528436040830612
1684252521883318000,0.305318115234375,3.3298598775029182,12.434026794302463,-3.9312919854581354
1684252521893344000,0.315343994140625,2.2267793933808804,10.874652156478167,-3.4298511145621537
1684252521903370200,0.325370361328125,1.3664261539958416,9.909256972515582,-1.8961323115199804
1684252521913396200,0.335396240234375,0.4945977270029485,9.090799485704302,-0.17178104650676249
1684252521923422200,0.345422119140625,0.12703268098086118,8.506582131922244,1.343857909965515
1684252521933448200,0.3554482421875,0.6947839069999754,7.553691040223836,3.9145740748912092
1684252521943474200,0.36547412109375,0.1863772887445986,5.934427458626032,7.838181351065635
1684252521953500200,0.375500244140625,-0.7530255219578742,3.881818052715063,12.338420055937766
1684252521963526000,0.38552587890625,-1.5302920434638856,2.0564158124566077,16.455018339908122
1684252521973551900,0.3955517578125,-2.6325959902554747,0.6892179434359074,19.432982011294364
1684252521983577900,0.405577880859375,-3.160074973249435,-1.044125606328249,22.26115844131708
1684252521993603800,0.415603759765625,-2.3759051020957527,-3.398513142490387,24.24290041332245
1684252522003629800,0.4256298828125,-0.10612097198590635,-5.299191865268349,24.439659833741185
1684252522013656000,0.435656005859375,2.018928085583448,-5.938542492729425,23.353664924454687
1684252522023682000,0.44568212890625,3.336557329314947,-6.852319133135676,21.85606139088869
1684252522033708000,0.4557080078125,5.329322215116024,-8.337274782052635,20.62159558353424
1684252522043734000,0.465734130859375,7.545313672500848,-8.9568235614568,19.168732524448632
1684252522053760000,0.475760009765625,9.050544047683477,-8.585148888158798,16.765364392018316
1684252522063786000,0.485785888671875,9.679517658036946,-8.271448264923691,13.709538897794484
1684252522073812000,0.49581201171875,9.877019421255588,-7.99787214680612,10.255417849850653
1684252522083838000,0.505837890625,12.415711385411024,-6.307256562656164,3.424061425244808
1684252522093864000,0.515864013671875,17.055734993070363,-1.0809890638232231,-4.627547572445869
1684252522103890000,0.525889892578125,14.124234966695308,2.0477572897046805,-5.821363974025846
1684252522113916000,0.535916015625,5.288289362981915,-0.03177987062036991,-4.047900595319271
1684252522123942100,0.545942138671875,1.6748007599025965,-1.465068460664153,-1.4459505032181739
1684252522133968100,0.555968017578125,2.335587558624148,-0.22173720980882644,1.3126385958373545
1684252522143994000,0.565994140625,0.773647454226017,0.06556406680047512,0.7147188799172639
1684252522154020000,0.57602001953125,2.1178087310522793,-0.28708675707578657,-1.6304373020410536
1684252522164046000,0.586046142578125,2.677296132725477,-1.2799077081024646,-2.868655739927292
1684252522174072000,0.596072021484375,2.0723469565600157,-2.5752549773991107,-2.7782857331722974
1684252522184098000,0.60609814453125,0.7706219689249992,-2.683161225366592,-2.3186171346008777
1684252522194124000,0.6161240234375,0.9821265385329723,-3.812099788844585,-0.20032149681448935
1684252522204150000,0.62614990234375,-1.7664859409093856,-3.225908504641056,2.7120342686295507
1684252522214176000,0.636176025390625,-6.541674390339851,3.1043706216841933,1.1318261016130446
1684252522224202000,0.646201904296875,-4.508468773078918,-0.08958002542108297,1.5867366920024155
1684252522234228200,0.656228271484375,-4.238229105907679,-0.4003977866962552,0.5778454806625842
1684252522244254200,0.666254150390625,-0.3769734372932464,-2.305841239657998,3.497329490551352
1684252522254280200,0.6762802734375,-4.210410540133714,3.93368910972774,2.457933835354447
1684252522264306200,0.68630615234375,-1.8667174164652822,-0.17950316519141196,2.042892314016819
1684252522274332200,0.696332275390625,0.7032020451247691,-3.744655899646878,3.183279323226213
1684252522284358100,0.706358154296875,0.9570458732903003,-0.822027454252541,2.80198458866775
1684252522294384000,0.716384033203125,0.8763187241494655,-2.3620295753479,1.2787246357977389
1684252522304410000,0.72641015625,-0.6413491078019142,-4.924740128472447,0.23695932886004448
1684252522314436000,0.73643603515625,4.042024396762252,-1.593666491265595,-0.6675099694967269
1684252522324462000,0.746462158203125,2.5745126345992086,2.9120623354554174,-5.178575188809633
1684252522334488000,0.756488037109375,0.7217278818964957,4.994450793558359,-8.120249403196572
1684252522344514000,0.76651416015625,1.2482967643082141,5.727828196716308,-9.804930336600542
1684252522354540000,0.7765400390625,1.762577827554941,6.122789637577533,-8.932738921514153
1684252522364566000,0.78656591796875,2.0970693098843096,6.524876400274038,-8.033257932963966
1684252522374592000,0.796592041015625,1.1679623408120126,7.026171725219488,-7.059781149354577
1684252522384618000,0.806617919921875,1.0587690487086772,7.078261393418908,-4.79231903245151
1684252522394644200,0.816644287109375,0.21753705470524726,6.928410439169406,-2.4223154094845056
1684252522404670200,0.826670166015625,-0.9443487426720559,6.301907018321752,0.5733277109771967
1684252522414696200,0.8366962890625,0.6283470028877258,5.926228954601288,3.646410629472136
1684252522424722200,0.84672216796875,1.167696018026024,5.80027910042107,1.2602379619926214
1684252522434748200,0.856748046875,1.1020749603413045,2.5608669710844754,1.0975164202541112
1684252522444774100,0.866774169921875,0.8374047638654708,0.11240706651806831,1.8567045564949511
1684252522454800100,0.876800048828125,-0.7442787364006042,-1.326774673217535,1.4395529111355543
1684252522464826000,0.886826171875,-2.4318062914073466,-3.2973370795607564,1.1559633485257625
1684252522474852000,0.89685205078125,-2.6225319846197963,-3.121685913622379,0.16389993786811827
1684252522484878000,0.906878173828125,-2.5490721961334346,-1.6808961541682481,-0.8219587729305028
1684252522494904000,0.916904052734375,-2.5617621663585304,-0.006451368096470832,-1.0118974074184894
1684252522504930300,0.926930419921875,-3.674935005427897,3.33380949191153,0.08210194462537765
1684252522514956300,0.936956298828125,-2.634809574651718,3.926885859453678,0.4126800529032945
1684252522524982300,0.946982177734375,-0.7380398420110345,3.059965662768483,-0.5954191312760114
1684252522535008300,0.95700830078125,0.6031900575384497,2.001220579457283,-0.6790519387304782
1684252522545034200,0.9670341796875,1.0712927224561573,0.3928992476344108,0.04724719660431146
1684252522555060200,0.977060302734375,0.8843848339661955,-0.43570612370371814,0.989396821796894
1684252522565086200,0.987086181640625,0.05079699804037809,0.018514730855822562,2.270780739931762
1684252522575112200,0.9971123046875,0.6511997629478573,-0.4019692737966776,2.9125010191336274
1684252522585138200,1.00713818359375,1.1949065349042416,-0.3490472464263439,2.993235182537138
1684252522595164200,1.0171640625,1.500680456793308,-0.2161480114996433,2.696491247060895
1684252522605190100,1.027190185546875,1.797102905230224,-0.5901619414001703,2.308642268553376
1684252522615216000,1.037216064453125,1.6729168458521364,-0.8837374759733676,2.142914238475263
1684252522625242000,1.0472421875,1.038327149182558,-1.380214586982131,1.8467212148800491
1684252522635268000,1.05726806640625,0.6995239411339164,-1.6010393581211566,1.7153700861781835
1684252522645294000,1.067294189453125,0.230295633187145,-1.7014853532105683,1.5304488414607942
1684252522655320000,1.077320068359375,-0.0367842547789216,-1.1681138050466775,1.7237284569397568
1684252522665346000,1.087345947265625,0.24580635992139577,-0.22827976332008837,2.1181449772693215
1684252522675372000,1.0973720703125,0.4055867336414754,0.2605424490213394,2.268041524226218
1684252522685398000,1.10739794921875,0.45060660958513615,0.4874450787693262,2.3999643153361974
1684252522695424000,1.117424072265625,0.5002056300126015,0.3705529757916927,2.400721563444286
1684252522705450000,1.127449951171875,0.529476148160547,0.0917418796300888,2.2484517114847895
1684252522715476200,1.137476318359375,0.2836391008399427,-0.5219628499209881,1.8770058785066008
1684252522725502200,1.147502197265625,-0.020327479366213083,-1.217617548406124,1.04277638367638
1684252522735528200,1.157528076171875,-0.17668343159556388,-1.9844956546276806,-0.14631759249158202
1684252522745554200,1.16755419921875,-0.18305588923692703,-1.929192285078764,-0.5478723672032356
1684252522755580200,1.177580078125,-0.18249591726660727,-1.7418348992556332,-0.787906135072559
1684252522765606100,1.187606201171875,-0.28978147605247795,-2.0805922223359343,-1.0819287558261304
1684252522775632100,1.197632080078125,-0.3093628862917423,-2.7368583287626502,-0.953821285220608
1684252522785658000,1.207658203125,-0.32019648806042966,-3.221802822887897,-0.26151286495607345
1684252522795684000,1.21768408203125,-0.5956863308448345,-4.399648917397856,0.39248566186483946
1684252522805710000,1.2277099609375,-1.0184767858088015,-6.281511880546808,0.8656076527819037
1684252522815736000,1.237736083984375,-1.0134358690321446,-7.283079032608867,0.9817796247914433
1684252522825762300,1.24776220703125,-0.5115829102039336,-7.131012155875563,1.1725897814169526
1684252522835788300,1.257788330078125,-0.24804537101984023,-6.901687851938605,0.8640035785861313
1684252522845814300,1.267814208984375,0.39866321798861026,-6.9327662962913505,-0.1499270882256329
1684252522855840300,1.27784033203125,-0.02672256896449253,-4.846769584563374,0.2978385440462269
1684252522865866200,1.2878662109375,0.6924789910584688,-3.3292584044784306,-0.24829439561115577
1684252522875892200,1.297892333984375,1.106683477050066,0.1680646563321352,-0.7752986554991453
1684252522885918200,1.307918212890625,1.3250327979862688,2.5688059473901985,-0.6085778880566358
1684252522895944200,1.317944091796875,1.064420790860057,4.715235208249092,0.141036181489937
1684252522905970200,1.32797021484375,-0.26954463411178436,6.366124931210279,1.9942830352790653
1684252522915996200,1.33799609375,-2.009358877727389,7.6878259544253345,3.6508489041805263
1684252522926022100,1.348022216796875,-3.6098879482388493,9.23190833057165,4.375156281176209
1684252522936048400,1.35804833984375,-3.626870062699914,10.123547373449801,4.801376783654093
1684252522946074400,1.368074462890625,-3.5354759735941883,9.89601988980174,5.309605707255005
1684252522956100400,1.378100341796875,-3.7166274905145165,8.716096989017725,5.111642756265401
1684252522966126000,1.3881259765625,-2.7936919766187667,6.459808008036017,4.54850793800056
1684252522976152000,1.398152099609375,-2.209830596667528,4.060167956218123,3.2252161384627223
1684252522986178000,1.408177978515625,-1.667902817082405,1.5888707814216614,1.6646787404693661
1684252522996204000,1.4182041015625,-1.1712801601231098,-0.5021376209884881,0.5486478816203773
1684252523006230000,1.42822998046875,-0.7849240505218505,-2.043266992548108,-0.2449478433959186
1684252523016256000,1.438256103515625,-0.34335458774268623,-3.184240277212858,-0.8159842285655439
1684252523026282000,1.448281982421875,0.1442232140282169,-3.764351949241757,-1.2759833742655813
1684252523036308000,1.458307861328125,0.5160913275390863,-3.6840029857635495,-1.5710899177983402
1684252523046334200,1.468334228515625,0.8668890708945691,-2.913973137512803,-1.6510279623880981
1684252523056360200,1.478360107421875,1.335135674327612,-1.4784768082916735,-1.6691420034885405
1684252523066386200,1.48838623046875,2.046179226732999,0.2232762559443712,-1.5251833221480249
1684252523076412200,1.498412109375,3.5507889857992527,2.1877269014090297,-1.451488409731537
1684252523086438100,1.508438232421875,13.429451205825805,5.63615879780054,-2.9720260980308053
1684252523096464100,1.518464111328125,26.243644022917746,8.955055967262387,-6.154003106486797
1684252523106490000,1.528489990234375,14.819233831620215,7.154059269464016,-5.372218523034453
1684252523116516000,1.53851611328125,7.8594567788064476,4.497600173062086,-3.7617829755365846
1684252523126542000,1.5485419921875,4.5672009480327365,2.3428625180631877,-3.002913403725624
1684252523136568000,1.558568115234375,3.03675137591958,0.7152221532642841,-2.5410066708385943
1684252523146594000,1.568593994140625,2.4866619171887634,-0.5077274038195609,-2.145224853505194
1684252523156620300,1.578620361328125,2.1699971834510565,-1.302358024841547,-1.7353395458869636
1684252523166646300,1.588646240234375,1.9654178830616176,-1.467563784611225,-1.3693049243025481
1684252523176672300,1.59867236328125,1.8630333211250603,-1.305804365903139,-0.4321156979963183
1684252523186698200,1.6086982421875,1.6960387782424686,-0.9490478602737188,0.5708421047065406
1684252523196724200,1.61872412109375,1.2874071239471434,-0.5074503404438495,1.4965040478914975
1684252523206750200,1.628750244140625,0.577336946618557,-0.06957096435427665,2.037998696756363
1684252523216776200,1.638776123046875,-0.19518241689298302,0.6763327428996563,2.3361627281636
1684252523226802200,1.64880224609375,-1.1774953813761473,1.8745260443896055,2.7959903166890143
1684252523236828200,1.658828125,-2.048936270356178,3.2674387849032875,3.2331726504251357
1684252523246854100,1.668854248046875,-2.612448105239868,4.358773886173963,3.2864357463181015
1684252523256880000,1.678880126953125,-2.4960674589157104,5.06658839353025,3.288930193482339
1684252523266906400,1.68890625,2.4423181869409976,6.171781924283504,4.02807828899622
1684252523276932400,1.698932373046875,6.2332549223780624,7.371345929604768,4.332870798632502
1684252523286958800,1.708958740234375,4.678521388357877,6.916025589370727,3.4563252799898385
1684252523296984800,1.71898486328125,1.8897998936280607,4.7664486781358715,2.908772938521206
1684252523307010800,1.7290107421875,-1.2416808532997965,2.4173709388196465,2.8767241878315803
1684252523317036800,1.739036865234375,-4.288652302199602,0.6515367398172617,2.858366401103139
1684252523327062800,1.749062744140625,-7.163800911277532,-0.13942892895638942,3.263054870730638
1684252523337088800,1.7590888671875,-10.215632951951026,-0.43918753607869143,3.852746272009611
1684252523347114800,1.76911474609375,-11.657772372448443,-0.6967261271089314,3.620696342501044
1684252523357140700,1.779140625,-10.953868901056051,-0.9892693960249423,3.1262258951395747
1684252523367166700,1.789166748046875,-8.287260166561603,-1.199547638708353,2.9043524917304513
1684252523377192700,1.799192626953125,-0.6026131344333291,-0.8259563181340694,4.88539274520725
1684252523387218700,1.80921875,2.6575810861691833,0.15407178681492806,7.176007481899857
1684252523397245000,1.819244873046875,0.852233207423985,1.317540980926156,7.178707388508319
1684252523407271000,1.82927099609375,-0.7046613040223717,2.4660686264932155,5.2942655147820705
1684252523417297000,1.839296875,-1.3874103437051175,3.5768010866731403,2.2352423935607075
1684252523427323000,1.849322998046875,-0.7614934905737638,4.33375108859837,-0.9037928603999316
1684252523437348900,1.859348876953125,0.4681222464010119,4.677371633800864,-2.883704255977273
1684252523447374800,1.869374755859375,0.20256080017387865,4.400565447720885,-3.630067397436499
1684252523457400800,1.87940087890625,-1.3074439498037098,3.313828195634484,-3.156350984290242
1684252523467426800,1.8894267578125,-1.6345108350902795,1.8546107990860938,-2.4270415612235663
1684252523477452800,1.899452880859375,-2.085024067303538,0.45339200251996514,-1.5272522373765707
1684252523487478800,1.909478759765625,-3.0335566715314983,-0.6377291637390852,-0.6631180181480943
1684252523497504800,1.9195048828125,-3.6034108611792326,-1.312624567312002,-0.3472257300876081
1684252523507531000,1.929531005859375,-3.8262177460461855,-1.5060311701714992,-0.586418517088145
1684252523517557000,1.939556884765625,-3.7447225351423024,-1.4839993711054325,-1.3285750006377697
1684252523527583000,1.9495830078125,-3.580784603351354,-1.3008300846219063,-2.149681394522637
1684252523537609000,1.95960888671875,-3.6783424757838246,-1.0188128858953713,-2.7421926755279302
1684252523547635000,1.969635009765625,-3.5567186681091782,-0.9824386732220649,-3.140229870572686
1684252523557661000,1.979660888671875,-3.4548423479557036,-1.2229016262888908,-3.1472821271717546
1684252523567687000,1.98968701171875,-3.5915532501250502,-1.6130232259035109,-2.942528200867772
1684252523577713000,1.999712890625,-4.141747922796011,-2.027617587995529,-2.7908514924958348
1684252523587739000,2.00973876953125,-4.865560209751129,-2.461934303167462,-2.849280008327961
1684252523597764600,2.0197646484375,-5.442009267619252,-2.8829946464031933,-3.12340031632483
1684252523607790600,2.02979052734375,-5.626090408250689,-3.2822622600257394,-3.3413831420361992
1684252523617816800,2.03981689453125,-5.593933521011471,-3.650335693961382,-3.4464094506531953
1684252523627842800,2.0498427734375,-5.748938789284229,-4.055918482080101,-3.5051354881271717
1684252523637868800,2.059868896484375,-6.41815848530829,-4.458347190082073,-3.435077617038786
1684252523647894800,2.069894775390625,-7.190813421365618,-4.8789048444926735,-3.2931036797747013
1684252523657920800,2.079920654296875,-7.670129554215073,-5.16649429039359,-3.3960961444765325
1684252523667946800,2.08994677734375,-7.831612494069337,-5.296499557444453,-3.6755832402035593
1684252523677972700,2.09997265625,-7.752462384986877,-5.341745643359422,-3.9891543918401
1684252523687998700,2.109998779296875,-7.492982012239098,-5.416399025544524,-4.040320515453815
1684252523698024700,2.120024658203125,-6.810194394111633,-5.518524352023005,-4.000721203254163
1684252523708050700,2.13005078125,-5.646695389384031,-5.658553584960103,-3.858245453947782
1684252523718076700,2.14007666015625,-4.391351629173755,-5.824679966706038,-3.453295118513703
1684252523728103000,2.15010302734375,-3.3012744190096854,-5.9562160965859885,-2.8806065822228786
1684252523738129000,2.16012890625,-1.5360789563022552,-5.673756414788961,-2.1919601550646126
1684252523748155000,2.17015478515625,43.61217421481609,5.394059767964482,3.2009204861178993
1684252523758180900,2.180180908203125,45.885319053530694,27.295584686911106,3.690002226178348
1684252523768206800,2.190206787109375,0.5046306068480014,35.892809797310825,6.459054559320211
1684252523778232800,2.20023291015625,-8.572525553429125,32.00794872363806,2.152117097236961
1684252523788258800,2.2102587890625,-16.70055377393365,24.678439363765715,-5.869104799365997
1684252523798284800,2.220284912109375,-9.415452880108356,14.30795136566758,-5.335203089848161
1684252523808310800,2.230310791015625,-2.6643746918320654,3.2334546822369097,-1.5568765373982487
1684252523818336800,2.240336669921875,4.751721064603329,-4.0459675814300775,0.08426299511678516
1684252523828363000,2.250363037109375,0.8925191867135465,-6.951078782573342,-0.8107179055351763
1684252523838389000,2.260388916015625,2.6127976493299006,-8.991004063478112,-1.9136317278534172
1684252523848415000,2.2704150390625,6.4406690078020095,-10.132656562578678,-2.82773073208183
1684252523858441000,2.28044091796875,4.828830023247003,-8.171348306792973,-2.7693855106189846
1684252523868467000,2.290467041015625,0.6608171938598155,-4.603195221477747,-1.7221388496607541
1684252523878493000,2.300492919921875,-2.344635372954607,-2.257759053534269,-0.25526984238065775
1684252523888519000,2.310518798828125,-5.183931747406721,0.11215396853983402,1.5065996177092194
1684252523898545000,2.320544921875,-5.536023183834552,2.9738299325823783,3.2774224187791345
1684252523908571000,2.33057080078125,-2.1216401259087023,4.837261751505732,5.142554611879587
1684252523918596900,2.340596923828125,3.2328678222596645,5.4596261728525155,6.7942363620013
1684252523928622800,2.350622802734375,4.796480243784189,4.938893156987429,7.134647882029414
1684252523938648800,2.36064892578125,2.308095740586519,4.439287100303173,5.578266580802202
1684252523948674800,2.3706748046875,0.4509270737111568,4.018804264694452,3.656553837823868
1684252523958700800,2.38070068359375,-0.1485398716509342,3.2400311380177733,2.211602574776113
1684252523968726800,2.390726806640625,-0.0005459069123491645,2.2490140215426684,1.6836146193467079
1684252523978752800,2.400752685546875,0.5000818940350785,1.015199371573329,1.7342387450382113
1684252523988778800,2.41077880859375,0.8689701149523258,-0.42334231669306754,1.6274566787950693
1684252523998804700,2.4208046875,1.059244849526882,-1.8784101923465728,1.3856667149081825
1684252524008830700,2.430830810546875,1.4138842168718575,-2.9096441683977843,0.86365169640854
1684252524018856700,2.440856689453125,1.8074708622485398,-3.1431571561962364,0.20203235585298387
1684252524028882700,2.450882568359375,2.1475795999377967,-2.8663012857556343,-0.4358298596812412
1684252524038908700,2.46090869140625,2.3365181174725294,-2.3133669589877126,-1.0993558375757186
1684252524048935000,2.470934814453125,2.3426351390480993,-1.6366139448493717,-1.753093521503359
1684252524058961000,2.4809609375,2.2032447885364292,-1.033004492855072,-2.339903229866177
1684252524068987000,2.49098681640625,1.9393904384881258,-0.6340262175679207,-2.725204131326079
1684252524079012900,2.501012939453125,1.465035873568803,-0.5494990916222333,-2.859303389692306
1684252524089038800,2.511038818359375,0.9869780702173709,-0.6818377700567245,-2.7597622344881296
1684252524099064800,2.52106494140625,0.4980867381624877,-0.7646043160706758,-2.6687948463618754
1684252524109090800,2.5310908203125,0.1666302396148443,-0.7609037079870701,-2.665039293220639
1684252524119116800,2.54111669921875,0.04930953596159816,-0.66375558539927,-2.8994311096802354
1684252524129142800,2.551142822265625,0.04728679796233773,-0.38418285721540446,-3.233756880053878
1684252524139168800,2.561168701171875,0.34150764470174905,0.02603811209797859,-3.564295240843296
1684252524149194800,2.57119482421875,0.9764451318956912,0.539540592187643,-3.6740333804130554
1684252524159221000,2.581220947265625,1.6328512313149868,1.0510732335090636,-3.2195567975267765
1684252524169247000,2.5912470703125,2.0464203420124947,1.166788693922758,-2.350209958216548
1684252524179273000,2.60127294921875,2.314262592653185,1.4070675225943325,-1.7769516592137515
1684252524189299000,2.611298828125,2.527819272485375,1.6884499305486678,-1.3508699806846678
1684252524199325000,2.621324951171875,2.2849375678390262,1.6561013201296328,-1.129912815337628
1684252524209351000,2.631350830078125,1.9496376917362213,1.1683294936239719,-1.0015238974422216
1684252524219377000,2.641376953125,1.7085998613908886,0.4460661896765232,-0.8970867868900299
1684252524229403000,2.65140283203125,1.7400401247933506,-0.20707389368414877,-0.7749965307474136
1684252524239428900,2.661428955078125,1.8797496242567895,-0.5912555818557739,-0.7255905486740172
1684252524249454800,2.671454833984375,2.0164169795453546,-0.737289023643732,-0.7885869569435715
1684252524259480800,2.681480712890625,2.0988205374658104,-0.8052683348923921,-0.8899804620161652
1684252524269506800,2.6915068359375,2.1268379868127405,-0.8716033860653638,-0.9858090264379977
1684252524279532000,2.701531982421875,2.086980462068319,-1.038381509718299,-0.9389372390173375
1684252524289558000,2.71155810546875,2.0262273026809097,-1.304374040839076,-0.8502550392188132
1684252524299584000,2.721583984375,1.9619459691673515,-1.586457875061035,-0.8239186017613858
1684252524309610000,2.73160986328125,1.8948522085815667,-1.8247230258226395,-0.7916986592233181
1684252524319636000,2.741635986328125,1.791829787132889,-2.038968418571353,-0.767219247809425
1684252524329662000,2.751661865234375,1.668046609467268,-2.196704573112726,-0.7952398389615118
1684252524339688000,2.76168798828125,1.4860045734480023,-2.2850889590084553,-0.8742050199311227
1684252524349714000,2.7717138671875,1.2178741535156965,-2.3798253442794084,-1.0031140892431138
1684252524359740000,2.781739990234375,0.9821990192472935,-2.428157705771923,-1.162991347466409
1684252524369766000,2.791765869140625,1.1045179695792495,-2.3227444436639546,-1.474742590199411
1684252524379792000,2.8017919921875,1.5571592998623847,-2.094340761703253,-1.7934630874231456
1684252524389817900,2.81181787109375,1.9744000848099588,-2.068084622940421,-1.9540628147020935
1684252524399843800,2.82184375,2.27212806288749,-2.241027114441991,-1.9513579396575689
1684252524409869800,2.831869873046875,2.5004031500324606,-2.3906115267097947,-2.0039476663336155
1684252524419895800,2.841895751953125,2.6642536958009004,-2.3343612316995856,-2.187668741481006
1684252524429921800,2.851921875,2.8389503374934195,-2.096854205828905,-2.4030589203506705
1684252524439947800,2.86194775390625,3.082408965244889,-1.7280413517028093,-2.023616097269207
1684252524449973800,2.871973876953125,3.2527748842567203,-0.38526656079888344,-0.8697450448475778
1684252524459999700,2.881999755859375,3.375940368415415,2.1313275533169507,0.23586433669757095
1684252524470026000,2.89202587890625,3.3557913143560287,5.571256409779191,0.9388564288660883
1684252524480052000,2.902052001953125,2.729486630950868,9.27034765908122,1.39419006697312
1684252524490078000,2.912077880859375,1.3313073482111095,12.814966724073885,1.586689345729351
1684252524500104000,2.92210400390625,-0.23435762192904946,15.547643967759608,1.5052473263174295
1684252524510130000,2.9321298828125,-1.0225712155155837,14.735975702697038,1.4179054352119564
1684252524520156000,2.942156005859375,-1.0989857621543109,10.674223107635974,2.1239494257643816
1684252524530182000,2.952181884765625,0.9916220966309308,5.355490091073513,3.458655476503074
1684252524540207900,2.962207763671875,8.30261555660367,1.3041945926189422,5.426412470036745
1684252524550233900,2.97223388671875,11.557515177929401,0.005806055930256843,6.706614777171612
1684252524560259800,2.982259765625,8.429459729275107,0.1759510256677866,6.482922926163673
1684252524570285800,2.992285888671875,2.8906577283769845,0.4518634777784347,4.007133992905914
1684252524580310800,3.002310791015625,-0.8836077121138572,1.2423510076463222,2.371290594037622
1684252524590338000,3.012338134765625,-2.8721850830972193,2.5218016196310518,1.8521331569261847
1684252524600363000,3.022363037109375,-4.242918140506744,3.9767420695126052,2.0625084302432835
1684252524610389000,3.032388916015625,-5.627839882266521,5.11750141916573,2.096892053621262
1684252524620416000,3.042416015625,-6.496241841942071,5.469748338416219,2.2234883890114725
1684252524630441000,3.05244091796875,-7.049867073583602,4.9645782178640365,2.763717109593749
1684252524640468000,3.062468017578125,-7.056206797999143,3.1816876701205965,3.36240079562366
1684252524650493000,3.072492919921875,-6.09957593525052,1.219486264887452,3.8663878438711166
1684252524660519000,3.082518798828125,0.356801806075871,0.05130348625779152,4.7176197652980685
1684252524670546000,3.0925458984375,8.025106775212288,0.16111644462943076,6.039703358089923
1684252524680571000,3.10257080078125,4.3371188114658,0.1427969440847635,3.5929666240543123
1684252524690596900,3.112596923828125,0.5940703470155596,0.04943769238591194,0.8572664523508399
1684252524700622800,3.122622802734375,-2.63163562079072,-0.17394845367372036,-1.152416323568672
1684252524710649000,3.132649169921875,-5.177015684407949,-1.01946813493371,-2.7206609349384903
1684252524720675000,3.142675048828125,-5.942977844828367,-2.0346511398941276,-3.6852895184427497
1684252524730701000,3.152701171875,-6.321926893043518,-2.5196120006322857,-4.144387331388891
1684252524740727000,3.16272705078125,-6.4986874815285205,-2.8047423629432915,-4.24906146556735
1684252524750753000,3.1727529296875,-6.400973541751504,-3.052117287355661,-4.2256466877102845
1684252524760779000,3.182779052734375,-6.139181969451904,-3.1968951761245727,-3.8689626627951856
1684252524770805000,3.192804931640625,-5.897368770819902,-3.450607486864924,-3.2760891243487595
1684252524780831000,3.2028310546875,-5.77198765643835,-3.929246743366122,-2.78878929926902
1684252524790857000,3.21285693359375,-5.768491046494245,-4.5019747348845005,-2.4492631837733088
1684252524800883000,3.222883056640625,-5.702845146629214,-5.186156437718868,-2.251207293803245
1684252524810908700,3.23290869140625,-5.556435857266187,-5.795725674900412,-2.0947956658639013
1684252524820935000,3.242934814453125,-5.406995237383246,-6.2785951163172715,-1.9214140522927046
1684252524830961000,3.2529609375,-5.1957355824470515,-6.65245648600459,-1.7974151860497891
1684252524840987000,3.26298681640625,-4.906225397616624,-6.872330240029096,-1.6391735662043094
1684252524851012900,3.273012939453125,-4.682141916942596,-7.136586156615614,-1.4609943430930374
1684252524861038800,3.283038818359375,-4.228777679212391,-7.520117271924018,-0.8403535306684672
1684252524871064800,3.29306494140625,-3.986192327164113,-7.400265734618902,-0.11892064966317266
1684252524881090800,3.3030908203125,-3.4706267770648003,-6.1809869750022886,0.03705649584904313
1684252524891116800,3.31311669921875,-2.491198099313676,-4.466492502614855,0.32303704524859783
1684252524901142800,3.323142822265625,-1.620272466379404,-2.708971373927593,0.49358285087198017
1684252524911168800,3.333168701171875,0.2808781116940081,-0.41795653200149535,0.337318960840255
1684252524921194800,3.34319482421875,36.435716066539285,11.046460675513744,-9.429342873772978
1684252524931221000,3.353220947265625,26.70339620811939,20.22563577928543,-8.939411823406815
1684252524941247000,3.3632470703125,7.492124518626928,30.24282588777542,-9.72477777247727
1684252524951273000,3.37327294921875,-6.01326309493184,31.290195590591427,-6.8715259379088875
1684252524961299000,3.383298828125,-12.550095305937528,22.33491575144529,1.5209054986983537
1684252524971325000,3.393324951171875,-6.50792058929801,11.705251916503906,3.435321947188675
1684252524981351000,3.403350830078125,-2.7024972094774244,4.351410663929581,3.388471348686516
1684252524991377000,3.413376953125,-2.133933936423063,-0.6127355922579765,3.838908008532226
1684252525001403000,3.42340283203125,-2.065790374523401,-3.7682512947678566,4.188265051560104
1684252525011428900,3.433428955078125,-2.208816158927977,-5.544294753095508,4.850449734380841
1684252525021454800,3.443454833984375,-2.529789695775509,-6.72040072593987,5.199851201072335
1684252525031480800,3.453480712890625,-2.814558531297743,-7.510216055634618,5.2127217885613435
1684252525041507000,3.463507080078125,-2.8239596891105174,-7.692463551098108,5.457032649227976
1684252525051533000,3.473532958984375,-2.83543356154412,-7.295444593185186,5.6424517604649065
1684252525061559000,3.48355908203125,-3.2473712716475127,-6.810044756507873,5.567033239126205
1684252525071585000,3.4935849609375,-3.6786578253433104,-6.134002520987391,5.087855053442716
1684252525081611000,3.503611083984375,-3.9480885142192244,-5.197611897712946,4.270496175523102
1684252525091637000,3.513636962890625,-3.4376898453637956,-3.9031916801333426,3.297050371573865
1684252525101663000,3.5236630859375,-3.6110780348062512,-1.8772347188264131,2.3312319937631485
1684252525111689000,3.53368896484375,-4.195503770641983,0.5545645583182574,1.1437515172064303
1684252525121715000,3.54371484375,-5.070058115467429,3.0888363679438826,0.7170899929627775
1684252525131741000,3.553740966796875,-5.88274987835884,5.189551340854168,1.2086734867110849
1684252525141767000,3.563766845703125,-5.936245321702957,6.622801352453231,2.3248308945491907
1684252525151793000,3.57379296875,-5.666239463287591,7.139573647993803,3.9507983576998114
1684252525161819000,3.58381884765625,-5.449241556960344,6.064717387837171,5.268694435673952
1684252525171844900,3.593844970703125,-5.167852719265222,4.069045090156793,5.9826435002624985
1684252525181870800,3.603870849609375,-4.769520925188064,2.093321940049529,6.591209113359451
1684252525191896800,3.613896728515625,-4.25052540064007,0.12236556595265864,6.530423513007164
1684252525201922800,3.6239228515625,-3.6022482471406456,-1.8205548002272842,5.871932716268301
1684252525211948800,3.63394873046875,-3.2698879316210743,-3.657028469598293,4.953984343135357
1684252525221974800,3.643974853515625,-4.060978395818173,-5.614459591689705,4.225699002419412
1684252525232000800,3.654000732421875,-4.29701096522212,-6.534431579604744,3.4740608431667086
1684252525242026800,3.66402685546875,-2.382026069194078,-4.966867790105939,2.281160825779289
1684252525252053000,3.674052978515625,-0.8087386413514613,-2.8133021014958617,0.9875073547884822
1684252525262079000,3.684078857421875,0.32586101662814615,-0.7600012061893939,-0.07222805473431944
1684252525272105000,3.69410498046875,1.333007430127263,1.5249813698351382,-1.078856581839174
1684252525282131000,3.704130859375,4.069816659051179,4.304580523693561,-1.8281845644533634
1684252525292157000,3.714156982421875,32.61810774340629,9.5280540078938,-5.436870735687017
1684252525302183000,3.724182861328125,22.589556867468357,8.82938493002355,-3.8567309577316045
1684252525312209000,3.734208984375,5.8830807177484035,4.962143684193491,0.5509894763104617
1684252525322235000,3.74423486328125,1.5086866531163454,2.9012632935434577,2.6238980122759936
1684252525332260900,3.7542607421875,-0.44894145285189146,1.323201490905881,3.422806456747651
1684252525342287000,3.764287109375,-0.8904851966679096,-0.1785427957266569,3.875499371087551
1684252525352313000,3.77431298828125,-1.1501146224975585,-1.4433955580383537,3.909784794788062
1684252525362339000,3.784339111328125,-1.3826549658715723,-2.462430562251806,3.8657521763160823
1684252525372365000,3.794364990234375,-1.8819114784657953,-3.0006787765413523,3.671870064899325
1684252525382391000,3.80439111328125,-1.8259294790029525,-3.2226030333548783,3.4845389825612303
1684252525392417000,3.8144169921875,-1.7702677975356578,-3.1784798139899966,3.0454660127729176
1684252525402443000,3.824443115234375,-1.8115607619106768,-2.8221663759529587,2.297480530808866
1684252525412469000,3.834468994140625,-1.7549451407194137,-2.4078894092470406,1.9740034867078065
1684252525422495000,3.844494873046875,-1.5837690743684767,-2.076331642282009,1.914878951435536
1684252525432521000,3.85452099609375,-0.6271030672412365,-2.1949843251913785,2.0808140483930706
1684252525442547000,3.864546875,8.446672145360708,-1.855201750716567,0.8568697811834514
1684252525452573200,3.8745732421875,19.01878980026245,-0.7284872930288314,-1.1306576423555612
1684252525462599000,3.884598876953125,17.760327031248806,0.530767503145337,-1.7012123814880846
1684252525472625000,3.894625,14.82012113584876,2.694200505775213,-1.8279075010776518
1684252525482651000,3.90465087890625,12.225484581631422,5.929828440397977,-1.7507127638466655
1684252525492676900,3.9146767578125,9.911308644348383,9.810961433458328,-1.4115695101886987
1684252525502702800,3.924702880859375,6.575684796491265,12.63664896927476,-1.2584795740179717
1684252525512728800,3.934728759765625,0.11829729360044001,13.846746059048176,-1.3900550129950047
1684252525522754800,3.9447548828125,-5.722202758049964,14.141139339745044,-2.1213316444814203
1684252525532780800,3.95478076171875,-8.949012010923028,14.419169514662027,-4.113285798421502
1684252525542806800,3.964806884765625,-9.422440254777669,13.144640576988458,-5.104292393502592
1684252525552832800,3.974832763671875,-7.44144763983488,10.26588663689494,-2.6724650593072172
1684252525562859000,3.98485888671875,-4.923952777487039,6.501942099410295,-0.36357290764600037
1684252525572885000,3.994885009765625,-3.2039266821965575,2.8223849871397015,1.3752503887034953
1684252525582911000,4.004910888671875,-3.3701641231015325,0.9756979667901993,3.3164111978650093
1684252525592937000,4.01493701171875,-3.665702774441242,0.672058718842268,4.344712043073773
1684252525602963000,4.024962890625,-2.551525726765394,1.3764730623662471,4.680802777293324
1684252525612989000,4.034989013671875,-1.285505674239993,2.6205828963786364,4.895141693544388
1684252525623015000,4.045014892578125,-1.8907158394291996,3.9020249744415283,3.7308798877507448
1684252525633041000,4.055041015625,-3.1323809106379747,4.664935346075892,0.5134982423059642
1684252525643067000,4.06506689453125,-3.8568335413232444,5.11862077858448,-3.1824580699712035
1684252525653092900,4.0750927734375,-3.916916838625073,4.900061614289879,-5.958364799052476
1684252525663118800,4.085118896484375,-3.3516295185014604,3.768242526939511,-7.194510522317886
1684252525673145000,4.09514501953125,-2.834613185071945,1.7505004362702368,-7.284056937730312
1684252525683171000,4.105171142578125,-2.435906712463498,-0.5902578029900789,-7.146317277035116
1684252525693197000,4.115197021484375,-2.2359850286215543,-2.862867804175615,-6.674015406861901
1684252525703223000,4.12522314453125,-2.426077976888418,-4.807726444941759,-5.887250696909427
1684252525713249000,4.1352490234375,-3.3578953008979555,-6.1884098184794185,-4.829411914788186
1684252525723275000,4.14527490234375,-4.2266061803922055,-6.957908920854329,-4.143628037454188
1684252525733301000,4.155301025390625,-4.582248879560828,-7.370051213619113,-3.338345381775498
1684252525743327000,4.165326904296875,-4.496172186085581,-7.69397044852972,-2.108660525087267
1684252525753353000,4.17535302734375,-4.541425286263228,-8.0227710257411,-1.4420558338671923
1684252525763379000,4.18537890625,-4.678981407085061,-8.42453279426694,-1.2755533122852445
1684252525773405000,4.195405029296875,-4.844943538179994,-8.932310466969012,-1.2421334193728863
1684252525783431200,4.20543115234375,-4.783098199641704,-9.5633573764652,-1.2775845258519052
1684252525793457200,4.21545703125,-4.614924237716198,-10.1026624063313,-1.1358366524286567
1684252525803483100,4.225483154296875,-4.505976371741294,-10.257706837570666,-0.962873702660948
1684252525813508900,4.2355087890625,-4.528199017204344,-9.825120891714095,-1.0212896512724459
1684252525823534800,4.245534912109375,-4.521676337437332,-9.233148686021567,-1.2451469219751656
1684252525833560800,4.255560791015625,-4.411745305643976,-8.757047423565387,-1.4490763801537454
1684252525843586800,4.2655869140625,-4.292652477751672,-8.433574178856611,-1.577047803289443
1684252525853612800,4.27561279296875,-4.1306630496799945,-8.087309256625176,-1.6445295402795075
1684252525863638800,4.285638671875,-4.0111762540340425,-7.6485419917851685,-1.6736546586073935
1684252525873664800,4.295664794921875,-3.839996972812712,-7.206968437352776,-1.5249474675655363
1684252525883690800,4.305690673828125,-3.693592651885748,-6.52509676502645,-1.3648391770653425
1684252525893717000,4.315717041015625,-3.4696038637578486,-5.194353772699833,-0.9623341889567673
1684252525903743000,4.325742919921875,-2.8080548484921453,-1.8975445164054632,0.03222717599645257
1684252525913769000,4.33576904296875,-1.4038707723796366,3.6988358132362364,0.7940066439047455
1684252525923795000,4.345794921875,-0.0009749825119972228,9.85098014011383,0.5812945982031524
1684252525933821000,4.355821044921875,8.322765779706835,18.446721733957528,-1.0394546919077634
1684252525943847000,4.365846923828125,10.99533137677908,29.58817072367668,-4.843740007609129
1684252525953873000,4.375872802734375,2.991316489434242,38.56162919359207,-9.670917587473989
1684252525963899000,4.38589892578125,-0.5928074874728918,39.899796198439596,-10.037469510930777
1684252525973924900,4.3959248046875,-3.8853783755451436,31.618290065360068,-5.74475887325108
1684252525983950800,4.405950927734375,-2.5218279231160876,18.26920828127861,-2.70944308309257
1684252525993976800,4.415976806640625,-1.0227017830926923,7.075645657962561,-3.1343913736775515
1684252526004003000,4.426003173828125,0.4732061986017972,0.06615677199661732,-2.942358104997873
1684252526014029000,4.436029052734375,1.7222428945571182,-5.191791813257336,-2.1265904417924584
1684252526024055000,4.446054931640625,3.1680607113063335,-8.604071030771731,-1.5515195404097437
1684252526034081000,4.4560810546875,3.1789591219395397,-10.236167205935716,-1.6931825120285153
1684252526044107000,4.46610693359375,1.402208392125368,-10.686579900383949,-1.4888595244877039
1684252526054133000,4.476133056640625,0.7646721936751156,-10.757522153091431,-1.0230574646625668
1684252526064159000,4.486158935546875,0.7598444081924856,-10.888214233362675,-1.0270344054695217
1684252526074185000,4.49618505859375,0.8182846144624054,-10.69955979346633,-1.0929043964140117
1684252526084211000,4.5062109375,0.8493633510760963,-10.067159715795515,-1.2492135868921874
1684252526094237000,4.51623681640625,0.8323685232639312,-9.345572119152546,-1.6090724424511194
1684252526104263000,4.526262939453125,0.7883470107078552,-8.78678731279075,-1.7532494427174328
1684252526114289200,4.5362890625,1.0597099828206002,-8.106303295430541,-1.8865829774081706
1684252526124315100,4.546315185546875,3.4716531975030898,-6.47285804374516,-1.4409277066200972
1684252526134341000,4.556341064453125,3.7188638712644573,-3.1358114696085453,-0.9289294205483049
1684252526144367000,4.5663671875,0.8471909754730761,-0.2829775681912899,-0.8600169201027601
1684252526154392800,4.576392822265625,0.8029093506760895,2.635817874911427,-0.3423779247302562
1684252526164418800,4.586418701171875,0.985257383904606,5.524628514117002,0.5075054681645707
1684252526174444800,4.59644482421875,-0.22510931659042835,7.622769837146997,1.1837718312971293
1684252526184470800,4.606470703125,-0.9380888054944574,8.537619075220823,1.516223039970547
1684252526194496800,4.616496826171875,-0.9038034548591822,8.110993499073386,1.0096597114942967
1684252526204522800,4.626522705078125,-1.0392243172179907,6.880712868449091,0.5289774048581719
1684252526214549000,4.636549072265625,-1.3083411909043787,4.863832947567105,0.1420216853959486
1684252526224575000,4.646574951171875,-1.4868699581056832,2.066156285226345,0.0005616524707525968
1684252526234601000,4.65660107421875,-0.9409745169986039,0.0028150574207305907,0.21743227915652094
1684252526244627000,4.666626953125,-0.2340215949077159,-0.7229746670871973,0.3178588388931006
1684252526254652000,4.67665185546875,0.33465397941470143,-1.4353671498835086,0.12901852103583514
1684252526264678000,4.686677978515625,0.7409124748378991,-2.358171146354079,-0.0362691448636353
1684252526274705000,4.696704833984375,1.0185030892938376,-3.1167467036545276,-0.33768874400071797
1684252526284730400,4.70673046875,1.2944422832809388,-3.6114451145529745,-0.6378231986980885
1684252526294756400,4.71675634765625,1.4335839197285472,-3.9119051479429006,-0.8056390679009259
1684252526304782300,4.7267822265625,1.4427655895717442,-3.864872763133049,-0.8829073087595403
1684252526314808300,4.736808349609375,1.404628458879143,-3.384470004090667,-0.7442350433893501
1684252526324834300,4.746834228515625,1.2883460122324526,-2.457701195642352,-0.31039880521073937
1684252526334860300,4.7568603515625,1.1702275823302566,-1.3227981708019971,0.21349398985952137
1684252526344886300,4.76688623046875,0.9969196185171604,-0.2903986581027508,0.716505471073091
1684252526354912500,4.77691259765625,0.6775386115580797,0.4010007210254669,1.0217124067291616
1684252526364938500,4.7869384765625,0.09638006082475185,0.5375011953145266,1.0471388166695832
1684252526374964500,4.796964599609375,-0.15767492587342857,0.06197159526646137,1.133160492021963
1684252526384990500,4.806990478515625,0.539353106791526,-0.501261422675848,1.2281579393818973
1684252526395016400,4.817016357421875,1.6239792119428516,-0.7646732896536588,1.2398635747447608
1684252526405042400,4.82704248046875,2.5703856177970765,-0.882944279769063,1.0663709020145238
1684252526415068400,4.837068359375,3.3833228798821566,-0.9014303690522909,0.41481808784529567
1684252526425094400,4.847094482421875,4.099501310957968,-0.7712345478653907,-0.7054942477151751
1684252526435120400,4.857120361328125,4.82929325684458,-0.49742462099194523,-1.9239716278210282
1684252526445146400,4.867146484375,6.000751988404989,-0.19308862295150755,-3.361701707443595
1684252526455172400,4.87717236328125,16.438820069301126,0.11032558406889438,-6.545497163498402
1684252526465198600,4.887198486328125,24.6464636783123,-0.5717272900432347,-9.168381907078624
1684252526475224600,4.897224609375,10.20529392876625,-1.6039549533069133,-6.794206551384925
1684252526485250600,4.90725048828125,0.5334960513263941,-0.7398369545608758,-3.14813932852298
1684252526495276500,4.917276611328125,-0.22664660916030405,1.3275824824690818,-2.885404045632481
1684252526505302500,4.927302490234375,-1.3290335580602288,4.5807729617893695,-2.3486430011607706
1684252526515328500,4.93732861328125,-2.825305258500576,7.425231249049306,-1.8680862206004558
1684252526525354500,4.9473544921875,-4.460169144812226,9.6089419005543,-1.9384132640190421
1684252526535380500,4.95738037109375,-5.482887221452594,10.801899054956435,-2.4322550580881535
1684252526545406500,4.967406494140625,-5.58916265334785,9.900963775944708,-2.46946440641135
1684252526555432200,4.97743212890625,-5.230658427268266,7.932275346779823,-1.7716171663179991
1684252526565458200,4.987458251953125,-4.737577972960472,5.886777234178781,-0.6753129713978618
1684252526575484400,4.997484375,1.6412195389486848,6.035558513370156,1.5618220309764146
1684252526585510400,5.007510498046875,7.292126846939325,8.761250720474123,4.688718664984405
1684252526595536400,5.017536376953125,6.239946528971195,10.848490125739573,7.155946690645814
1684252526605562400,5.027562255859375,4.233822103120386,11.758960125815868,8.7543375800848
1684252526615588400,5.03758837890625,0.5986193886220454,11.959767944842577,8.842734825462102
1684252526625614300,5.0476142578125,-2.2981363643690944,11.219668539953231,8.141342460107802
1684252526635640300,5.057640380859375,-4.078542986342311,9.743371998310089,7.58221921557188
1684252526645666300,5.067666259765625,-5.986809972292185,8.007094148659705,8.010633428701757
1684252526655692300,5.0776923828125,-8.161540029484033,6.023115795904397,8.044853678211568
1684252526665718300,5.08771826171875,-9.223643775573372,3.849609143027663,7.044243388482928
1684252526675744300,5.097744140625,-9.89589012594223,2.004534234049916,6.365061101371049
1684252526685770500,5.1077705078125,-8.65702053067088,0.34187574736177917,7.294004331248998
1684252526695796500,5.11779638671875,-4.460231688654423,-0.7191366963595152,9.540356440106034
1684252526705822500,5.127822509765625,-1.4663862652644515,-1.6050976936012507,9.646920041292905
1684252526715848400,5.137848388671875,-0.840349292884767,-1.7825176227778194,7.486578574937582
1684252526725874400,5.14787451171875,-0.1720329754412174,-1.1369389145821331,3.5810403316780923
1684252526735900400,5.157900390625,1.565482307049632,-0.20126608418822287,-1.2101650404430926
1684252526745926400,5.167926513671875,3.456946626758575,0.5707295111775398,-4.795348024883866
1684252526755952400,5.177952392578125,5.1712639890134335,0.47272389497756956,-7.263488196954131
1684252526765978400,5.187978271484375,3.798099905064702,-0.4043950396388769,-7.685269840201735
1684252526776004400,5.19800439453125,-0.6496884816020727,-1.3150403962820767,-5.8803697052240365
1684252526786030300,5.2080302734375,-4.278388682338595,-2.2899463359117505,-3.5735277640908953
1684252526796056600,5.218056640625,-6.093586339446902,-3.4840041450321673,-1.9832395170867443
1684252526806082600,5.22808251953125,-6.8132397531569,-4.7136803800225255,-1.0793164544358849
1684252526816108500,5.238108642578125,-6.45555035059154,-5.762057214054465,-0.5550397015493362
1684252526826134500,5.248134521484375,-5.844738419872522,-6.395674266299605,-0.45779761706776917
1684252526836160500,5.258160400390625,-6.028795595106482,-6.6043894974499935,-0.2182109353788197
1684252526846186500,5.2681865234375,-6.4838038006514305,-6.670021953311562,-0.20032032777071
1684252526856212500,5.27821240234375,-7.348859957030415,-6.499223488101363,-0.2257388831982389
1684252526866238500,5.288238525390625,-8.194232338774205,-6.240331144374609,-0.4408572228565812
1684252526876264400,5.298264404296875,-8.715569165751338,-6.062751640722155,-0.8324011834245174
1684252526886290400,5.30829052734375,-8.261325514838099,-6.16934563704729,-1.4790440867856145
1684252526896316400,5.31831640625,-7.541742828276753,-6.481396739509702,-1.6716436110459267
1684252526906342400,5.32834228515625,-6.996154188096523,-6.896299729159474,-1.6136860737264156
1684252526916368400,5.338368408203125,-6.456497276052832,-7.269991002976894,-1.4422579323105513
1684252526926394400,5.348394287109375,-6.062459964299202,-7.487606164419651,-1.2884370515167713
1684252526936420400,5.35842041015625,-5.7701393982231615,-7.528547831138968,-1.2242222073681652
1684252526946446300,5.3684462890625,-5.27080455969572,-7.535530529633164,-1.2527809239849448
1684252526956472300,5.378472412109375,-4.631387004478276,-7.520577875173092,-1.3250173081561922
1684252526966498300,5.388498291015625,-4.071807832868397,-7.342277071508764,-1.3607291113980113
1684252526976524300,5.398524169921875,-3.6224420171245932,-6.836517752891779,-1.1429109747290611
1684252526986550300,5.40855029296875,-3.350252384929359,-5.261002712127566,-0.31832433751299977
1684252526996576300,5.418576171875,-3.0526722908899186,-2.1399714630216358,0.8530698043785989
1684252527006602200,5.428602294921875,-3.0476632305562497,1.1644903538525104,2.139488647940755
1684252527016628500,5.43862841796875,-3.0127836403548716,4.529653015404939,3.596584230029583
1684252527026654500,5.448654541015625,0.558867150883004,9.145751557597517,4.839171676780283
1684252527036680400,5.458680419921875,13.232726856720447,17.94012479547262,5.165353303664922
1684252527046706400,5.46870654296875,7.281050157129764,23.332869973707197,4.000300932015478
1684252527056732400,5.478732421875,22.95208903388977,38.756810404908656,0.9186924694985151
1684252527066758400,5.48875830078125,19.584787022221086,46.379352278518674,-3.4963130069851873
1684252527076784400,5.498784423828125,-0.691792177838087,31.57727299531698,-4.7419414288669826
1684252527086810400,5.508810302734375,-2.4894296283364294,16.018477518945932,-6.747658150699734
1684252527096836400,5.51883642578125,6.859726779043674,1.3879320294916628,-7.37132488681674
1684252527106862300,5.5288623046875,2.199263609945774,-2.587311325895786,-7.252162500819564
1684252527116888600,5.538888671875,-2.6571093770042062,-4.234267216539383,-6.116780752551556
1684252527126914600,5.54891455078125,-3.5385189945518967,-6.740922704964876,-4.374584618768096
1684252527136940500,5.5589404296875,-4.051930581487715,-8.074628054228425,-3.7169352412894368
1684252527146966500,5.568966552734375,-5.514074386876821,-7.787972674307227,-4.0975776494190095
1684252527156992500,5.578992431640625,-7.506735227781534,-6.608584611052274,-5.361934444907307
1684252527167018500,5.5890185546875,-8.588468972492217,-5.6286605509996415,-6.305351605817675
1684252527177044500,5.59904443359375,-8.29657043122053,-5.347787261611223,-5.9869654551148415
1684252527187070500,5.609070556640625,-6.7008513913393015,-5.631346429082751,-4.585698727753758
1684252527197096400,5.619096435546875,-5.44156561550498,-5.665302474698424,-3.310803294855356
1684252527207122400,5.629122314453125,-4.816854338771105,-5.26248681320548,-2.520868722695112
1684252527217148400,5.6391484375,-4.584697441756725,-4.227780777129531,-1.706299475494027
1684252527227174400,5.64917431640625,-4.740917931038141,-2.5551690517038104,-0.9078320527881384
1684252527237200400,5.659200439453125,-5.285751953458786,-0.6861322523802519,-0.6072752810254692
1684252527247226400,5.669226318359375,-6.017095220440626,1.0843301909446716,-0.5344765867963432
1684252527257252400,5.67925244140625,-7.108785711020231,2.510492290109396,-1.1089886852525175
1684252527267278300,5.6892783203125,-7.543731956267356,3.4155917030632494,-2.2162978929854926
1684252527277304300,5.69930419921875,-6.97639033396244,3.699297585529089,-2.9040429873898623
1684252527287329800,5.709329833984375,-5.8689469784557815,3.485218781518936,-3.014781828434765
1684252527297356000,5.71935595703125,-4.74867687460184,2.9268910712748766,-2.8209043931931257
1684252527307382000,5.729382080078125,-3.6803660905659195,2.0748516328573228,-2.6121336324632165
1684252527317408000,5.739407958984375,-2.967943797153234,1.124193999299407,-2.400950549894571
1684252527327434000,5.74943408203125,-2.4891888053178786,0.19697452447414396,-2.0724089158803225
1684252527337460000,5.7594599609375,-2.165220178307593,-0.493915151566267,-1.7609709768801927
1684252527347486000,5.76948583984375,-1.893322514796257,-0.9920207405596971,-1.2642831457301973
1684252527357512000,5.779511962890625,-1.75778708614707,-1.2278946122705936,-0.7120581362754106
1684252527367538000,5.789537841796875,-1.6436394595719872,-1.1484943278193473,-0.23877514611035583
1684252527377564000,5.79956396484375,-1.468440567445755,-0.8954068709790706,0.31149434536248444
1684252527387590000,5.80958984375,-1.320428957452625,-0.4677361696928739,0.8466367025911807
1684252527397616000,5.8196162109375,-1.4120552478790283,0.27857319575250145,1.2406348513782024
1684252527407640800,5.829640869140625,-1.480264276230335,1.4307611173927783,2.032101455411315
1684252527417668000,5.839668212890625,-0.380914174275659,2.7450100710362193,3.0907705508768557
1684252527427693000,5.849693115234375,0.8204939610749482,3.533876137182116,4.002084600561857
1684252527437719000,5.859718994140625,3.3596529582202432,3.681586572271585,5.016482008102536
1684252527447745000,5.8697451171875,14.603095172470807,3.1340222481042144,7.011007473835349
1684252527457771000,5.87977099609375,17.23759728860855,1.7004717922538517,6.826475082305073
1684252527467797000,5.889796875,10.287375999647379,0.8143617419302464,4.644734269568324
1684252527477823000,5.899822998046875,3.320258520942926,0.47242812690138813,2.1646406248539685
1684252527487849000,5.909848876953125,-0.32872579494211823,0.10464987652003764,0.3312161139205098
1684252527497875000,5.919875,-1.3337854287624358,-0.4798801964730024,-1.2229279297739266
1684252527507901000,5.92990087890625,-1.6981458335243165,-1.076958785393834,-2.3172543218150734
1684252527517927000,5.939927001953125,-1.9550573786973953,-1.7319161473095417,-3.1290374454289673
1684252527527953200,5.949953125,-1.9500620546281338,-2.2792209437578914,-3.623725042672455
1684252527537979100,5.959979248046875,-2.1779753227233885,-2.6659412104964253,-3.6887738534271715
1684252527548005000,5.970005126953125,-2.6811262124076483,-2.842694200196862,-3.285477130419016
1684252527558031000,5.980031005859375,-3.3509283844947815,-2.724117505133152,-2.399128595164418
1684252527568057000,5.99005712890625,-4.224935616831481,-2.2001298713862893,-1.2468170471444726
1684252527578083000,6.0000830078125,-5.315906268703937,-1.1363748509585856,0.017876506017521023
1684252527588109000,6.010109130859375,-6.450313618981838,0.026036358532309532,0.9227765239417552
1684252527598135000,6.020135009765625,-7.37391665687561,1.0548960066676139,1.5563450608700513
1684252527608161000,6.0301611328125,-7.631412577807903,1.956512253680825,1.8555846125543116
1684252527618187000,6.04018701171875,-7.113833642059564,2.8245132313400507,1.7422857117630541
1684252527628213000,6.050212890625,-6.310237624293565,3.7533325425773856,1.4423606620326637
1684252527638239200,6.0602392578125,-4.929151515173912,4.493474617564678,1.1365274111717938
1684252527648265200,6.07026513671875,-0.022240181119740007,4.985093767148256,1.055298449988663
1684252527658291200,6.080291259765625,8.53417565676868,3.9950183154374357,-0.02393330357214436
1684252527668317200,6.090317138671875,11.485242553400992,2.144672772580385,-1.6092907613769172
1684252527678343200,6.10034326171875,7.420145324087143,0.7063228074938058,-2.0425196813121436
1684252527688369200,6.110369140625,4.4954485479861495,-0.08945522999763489,-2.1663599959924817
1684252527698395100,6.12039501953125,2.734728623257577,-0.24681670600771902,-2.6935785744845866
1684252527708420900,6.1304208984375,0.9261837020367384,-0.15803718331456185,-3.0845459772735833
1684252527718446800,6.14044677734375,-0.4330747522868216,-0.1577864234238863,-3.1005823353171347
1684252527728472800,6.150472900390625,-0.4555094330653548,-0.08453472473025321,-3.453257416851818
1684252527738498800,6.160498779296875,0.36207477804273364,0.10536708487868308,-4.075153343904018
1684252527748525000,6.170525146484375,1.4929690056331455,0.5400801058918238,-4.88269780703485
1684252527758551000,6.180551025390625,2.018520089304447,0.9207540782034397,-5.111502471011876
1684252527768577000,6.190576904296875,1.1902066866502166,1.1168126568764447,-4.622951769088209
1684252527778603000,6.20060302734375,0.3267421833768487,1.1267980443179606,-3.89582962693274
1684252527788629000,6.21062890625,0.09418722695559263,1.1857903315126894,-3.043190176795423
1684252527798655000,6.220655029296875,-0.024895079542696475,1.1285340743303298,-1.7650740282848476
1684252527808681000,6.230680908203125,-0.4278805446445942,0.7895809364169836,0.5375380201935768
1684252527818707000,6.24070703125,-1.5921619319215417,0.19998656577169893,2.6641765389114616
1684252527828733000,6.25073291015625,-2.9690324691727756,-0.382798124858737,3.7545083083584903
1684252527838759000,6.260759033203125,-4.229629912127554,-0.9236457079917192,3.6289445308864114
1684252527848785000,6.270784912109375,-5.219662986001372,-1.3837404230207204,2.6517542797118425
1684252527858811100,6.28081103515625,-5.565957718849182,-1.7671569720387457,1.2860156695887446
1684252527868837000,6.290837158203125,-5.156864876782894,-2.0078157399386165,0.2947580223560333
1684252527878863000,6.300863037109375,-4.10595881653428,-2.042355722922087,-0.18940408921986818
1684252527888889000,6.31088916015625,-2.743958516156673,-1.6733587444007396,-0.18720511787086724
1684252527898915000,6.3209150390625,-1.616187827414274,-0.9867372471988201,0.24605069007128474
1684252527908941000,6.330941162109375,-1.004070659315586,-0.36706221106648446,0.8357584579631686
1684252527918967000,6.340967041015625,-0.8477224520012736,0.04926116677522659,1.241346214517951
1684252527928993000,6.350992919921875,-1.0518798737168311,0.15851941387355326,1.493360489168763
1684252527939019000,6.36101904296875,-1.2697139386072753,0.0571820229023695,1.5704913673833012
1684252527949045000,6.371044921875,-1.5646917411938308,-0.06497311517000198,1.6117042522594331
1684252527959071000,6.381071044921875,-1.932041537030041,-0.08142331471145152,1.671149836179614
1684252527969097200,6.39109716796875,-2.231884315304458,0.018068156132102012,1.9024407640144227
1684252527979123200,6.401123291015625,-2.417764614312351,0.16632395014464854,2.19926156411916
1684252527989149200,6.411149169921875,-2.319899867887795,0.19060206683278083,2.4414170003175735
1684252527999175200,6.421175048828125,-2.007255475707352,0.014978957945108413,2.5865049779489633
1684252528009201200,6.431201171875,-1.5619824822351336,-0.24618133071362971,2.6114123324513434
1684252528019227100,6.44122705078125,-0.9784653856769203,-0.38712534040808677,2.7461165709733963
1684252528029253000,6.451253173828125,-0.32923107758313414,-0.4894178401470184,2.9298186491593716
1684252528039279000,6.461279052734375,0.30500556786507366,-0.49280748258531093,3.1781431293815374
1684252528049305000,6.47130517578125,0.732055799165368,-0.45016251907944677,3.4476217490524053
1684252528059330800,6.481330810546875,0.816217891190946,-0.4617126716196537,3.754209909933805
1684252528069356800,6.491356689453125,0.6539844252303242,-0.486402876240015,3.9822552799761293
1684252528079383000,6.501383056640625,0.45533699910789727,-0.44778409951031206,4.109196483281255
1684252528089409000,6.511408935546875,0.29813641274794933,-0.21660043144226074,4.102482957117259
1684252528099435000,6.52143505859375,0.10588730936050414,0.07478197700083256,3.911954247781634
1684252528109461000,6.5314609375,0.31405308993458747,0.2992646861255169,3.775269649097323
1684252528119487000,6.541487060546875,0.9925753057025373,0.5218932918161153,3.5424326608642933
1684252528129513000,6.551512939453125,2.425383711013943,0.711639618602395,3.130658324629068
1684252528139539000,6.5615390625,4.240149844837188,1.3570517380595206,2.778484470614791
1684252528149565000,6.57156494140625,5.312124412077665,3.2798324025303125,2.8606436983853576
1684252528159591000,6.5815908203125,6.075794077646732,5.137675607666373,2.4990622568175196
1684252528169617000,6.591616943359375,7.36623370115757,5.926873682245612,1.1454029376752675
1684252528179643000,6.601642822265625,6.982887879288196,5.080272050967812,-0.39547961951643223
1684252528189669000,6.611669189453125,4.2757647635757925,2.5378935072541235,-0.894635886606574
1684252528199695000,6.621695068359375,1.4926117166280746,0.28005378969907757,-0.313646408829838
1684252528209721000,6.63172119140625,-0.34128004649095234,-0.955365957379341,0.33935280475541946
1684252528219747000,6.6417470703125,-0.8636859640043228,-2.064258927172422,0.5207327236041427
1684252528229773000,6.65177294921875,-0.7907938193380832,-2.9625574279397724,0.5710381387352943
1684252528239799000,6.661799072265625,-0.8828338781971484,-3.5957507018148895,0.7648366635218262
1684252528249825000,6.671824951171875,-0.9569138444084674,-4.113686195915937,0.9588602292358874
1684252528259851000,6.68185107421875,-1.121858834350109,-4.39634052350223,0.9540126430742442
1684252528269877000,6.691876953125,-1.3369617207109927,-4.106385517513751,0.7745569702863693
1684252528279903000,6.701903076171875,-1.6203401247881353,-3.0865584861397743,0.4820460692699998
1684252528289929500,6.711929443359375,-1.8515771304786204,-1.6685826160401105,0.3526050850383937
1684252528299955500,6.72195556640625,-2.11843694595322,-0.20486615450680254,0.24166133253853767
1684252528309981400,6.7319814453125,-2.435490094486624,1.194978431096673,0.10994524298179895
1684252528320007400,6.74200732421875,-2.753239554721117,2.3257085541665554,-0.08049202521070838
1684252528330032400,6.752032470703125,-2.9587597892224786,3.0001164664834734,-0.4160113527504727
1684252528340058400,6.762058349609375,-2.898940988075733,3.0921184583544727,-0.599525178355351
1684252528350084400,6.77208447265625,-2.5640052691102024,2.5847335843622683,-0.4988967028385028
1684252528360110300,6.7821103515625,-2.1155331873357293,1.8215677766621112,-0.3895898308254778
1684252528370136300,6.79213623046875,-1.77158764796257,1.090541905066371,-0.44700748911462723
1684252528380162300,6.802162353515625,-1.4689280587017535,0.43725276862382884,-0.5940354948978871
1684252528390188300,6.812188232421875,-1.164599074923992,-0.10822188978791236,-0.6917052302069961
1684252528400214500,6.822214599609375,-0.8826912548560648,-0.5360346298933029,-0.7325763889733702
1684252528410240500,6.832240478515625,-0.6696773766636848,-0.8461965576082467,-0.7338325265143066
1684252528420266500,6.8422666015625,-0.47614338456485417,-1.0489923355817794,-0.6577261690419167
1684252528430292500,6.85229248046875,-0.29707274730550126,-1.0717430965721606,-0.5119939752228557
1684252528440318500,6.862318359375,-0.13120063258158043,-0.8773942444264888,-0.28835590022876856
1684252528450344400,6.872344482421875,0.03774959952960489,-0.519077649873495,-0.06214147194065153
1684252528460370200,6.8823701171875,0.20127543653845786,-0.05906769051849842,0.16730623918026685
1684252528470396200,6.892396240234375,0.4090338053554296,0.42850364497900006,0.36857656115218995
1684252528480422100,6.902422119140625,0.6755956607967615,0.7291086397975682,0.6095207949299365
1684252528490448100,6.9124482421875,0.9493640866160392,0.7091109769076108,0.826314556987211
1684252528500474000,6.92247412109375,1.1716350379753857,0.445570515114069,0.9246532045338303
1684252528510500400,6.932500244140625,1.3247523736096918,0.12059738723635673,0.9554679564490913
1684252528520526300,6.9425263671875,1.4405442602604628,-0.20893150424957274,0.9556862023096531
1684252528530552300,6.95255224609375,1.510292919269204,-0.45628070969879625,0.9400372361484914
1684252528540578300,6.962578369140625,1.492346343690157,-0.5862970826655626,0.97404369677715
1684252528550604300,6.972604248046875,1.4137690660595894,-0.6415478452444077,1.0258624390807003
1684252528560630300,6.98263037109375,1.2722715141355991,-0.6685504184603691,1.1124018546968697
1684252528570656300,6.99265625,1.1034925720542668,-0.637341625726223,1.2225216139953583
1684252528580682200,7.00268212890625,0.9206839355766773,-0.5162339508801699,1.3218525605149567
1684252528590708200,7.012708251953125,0.7260247753728181,-0.3867693665772676,1.3848805329665541
1684252528600734200,7.022734130859375,0.50910227236934,-0.3275841871589422,1.4269231466650962
1684252528610760200,7.03276025390625,0.3492360835293308,-0.32132454224228857,1.4400408407829701
1684252528620786400,7.042786376953125,0.23589549902081489,-0.2766033569842577,1.434797533302009
1684252528630812400,7.0528125,0.14405545624587685,-0.195448922342062,1.4166107192263007
1684252528640838400,7.06283837890625,0.11394498014245182,-0.1755839459210634,1.3478835122197865
1684252528650864400,7.072864501953125,0.08808335712254046,-0.2343868480235338,1.204417655897513
1684252528660890400,7.082890380859375,0.08278181664831936,-0.37064240764081474,0.9924610316731035
1684252528670916400,7.092916259765625,0.15734752054996787,-0.49794250738620754,0.7135580194443464
1684252528680942300,7.1029423828125,0.32898579758517443,-0.4773141453772783,0.3882705649204552
1684252528690968300,7.11296826171875,0.6130073949366808,-0.2970060935437679,0.05709251798801124
1684252528700994300,7.122994384765625,1.0231576371014117,-0.04080313503146171,-0.2146600379642099
1684252528711020300,7.133020263671875,1.6211539253890512,0.17767244263291357,-0.3188286337733269
1684252528721046300,7.14304638671875,2.3769204166181384,0.40852293322384353,-0.20779764138143508
1684252528731072500,7.153072509765625,3.240572989809513,0.7453209389299154,0.12068886491209267
1684252528741098500,7.163098388671875,4.440320535004139,1.059308562412858,0.641227746444568
1684252528751124500,7.17312451171875,8.262771621993183,1.1804355264812707,1.7388507688783108
1684252528761150500,7.183150390625,13.286594055986404,1.22530868743062,3.2105040147602555
1684252528771176400,7.193176513671875,14.05369603409171,1.3955197081416844,3.8074908337444064
1684252528781202400,7.203202392578125,11.547871735793352,1.6773130349844694,3.3308082642689345
1684252528791228400,7.213228515625,8.417208150467276,1.8121897074639797,2.204009635429084
1684252528801254400,7.22325439453125,5.659759453618526,1.5684621996432542,0.8090298793829978
1684252528811280100,7.233280029296875,3.7813551064908504,0.8408896833717823,-0.2551885573053732
1684252528821306000,7.24330615234375,2.7833815950065848,-0.026377719315886495,-0.9082534200053661
1684252528831332000,7.25333203125,2.393369885507226,-0.8535919285565614,-1.4741748733140527
1684252528841358300,7.2633583984375,2.3115886972688138,-1.7924556639462708,-1.6503633609995245
1684252528851384300,7.27338427734375,2.2304427381940184,-2.3919302080929277,-1.4640484699666498
1684252528861410300,7.283410400390625,2.128563057039678,-1.9177888475328684,-1.0600695368479938
1684252528871436300,7.293436279296875,1.8832726838164031,-0.30452012243568893,-0.534619611996226
1684252528881462300,7.303462158203125,1.3862614659309387,1.913740448924899,-0.13892331752181053
1684252528891488300,7.31348828125,0.8529062843799591,4.1664311131536955,0.11062485927641391
1684252528901514200,7.32351416015625,-0.2662491362303495,6.4979819636076686,0.41891617081388827
1684252528911540200,7.333540283203125,-1.9955483790397643,8.850589046093821,1.0130098987050353
1684252528921566200,7.343566162109375,-2.028785462731123,10.499613559705018,1.5411070135973393
1684252528931592200,7.35359228515625,1.680943646571785,12.116100662326811,2.3953834172867237
1684252528941618200,7.3636181640625,2.3869876371242102,11.339380961048603,2.4027302729181943
1684252528951644400,7.37364453125,4.593944578051567,8.56144243387878,2.255548537877947
1684252528961670400,7.38367041015625,7.952663470292091,5.832496777936816,2.524664607846737
1684252528971696400,7.3936962890625,5.570089119565487,3.53649888690114,3.294195274403691
1684252528981722400,7.403722412109375,0.5071703544586896,1.6235504651367663,4.337727883274853
1684252528991748400,7.413748291015625,-3.8309716625750063,-0.0030997195810079574,5.316820460939407
1684252529001774300,7.4237744140625,-6.882422594976425,-0.9080150081396102,5.3943707336097955
1684252529011800300,7.43380029296875,-9.435289214956759,-0.9383692298710345,6.5398331463873385
1684252529021826300,7.443826416015625,-12.505460045397282,0.021817279532551765,8.076860343325137
1684252529031852300,7.453852294921875,-15.512017358583211,1.331395903277397,9.817593418818712
1684252529041878300,7.463878173828125,-16.796103229153154,1.7880021916687487,9.95137294371128
1684252529051904500,7.473904541015625,-14.879534278804062,1.488907016891241,8.93632496330738
1684252529061930500,7.483930419921875,0.6403121659696102,2.0206272907167673,12.271558935064077
1684252529071956500,7.49395654296875,2.1840683789014816,2.5637200224280354,14.071140505367516
1684252529081981400,7.5039814453125,-2.177163129557669,1.961260909512639,9.962055665767192
1684252529092007400,7.51400732421875,-3.4634695987865327,1.6276339350581168,7.265840897560119
1684252529102033400,7.524033447265625,-4.118810407061875,1.7235709282904863,4.9354970848083495
1684252529112059400,7.534059326171875,-3.7853231333389874,2.2787042264074087,3.2847295269221064
1684252529122085400,7.54408544921875,-4.750812717586755,3.039551235771179,2.0812696832060813
1684252529132111400,7.554111328125,-5.850569610244035,3.121223556807637,0.8124088542968034
1684252529142137300,7.564137451171875,-5.677918210643529,1.9855296738505361,-0.9866779182270169
1684252529152163300,7.574163330078125,-5.00166613176465,0.6705728641986847,-1.9998130507469176
1684252529162189300,7.584189208984375,-4.206438713893294,-0.9558055178403854,-1.8308543681845069
1684252529172215300,7.59421533203125,-3.2250831597328182,-2.9003590381801128,-2.0181834046959874
1684252529182241500,7.604241455078125,-2.6780349683940408,-4.344815503448248,-3.03460676510632
1684252529192267500,7.614267578125,-2.4118770175784823,-4.520085561114549,-4.3150022567257285
1684252529202293500,7.62429345703125,-2.0711346581608057,-3.5411265467017885,-5.299958173465728
1684252529212319500,7.634319580078125,-1.701771184414625,-2.1056956839323044,-6.237496797731518
1684252529222345500,7.644345458984375,-1.4542857853651046,-0.6209791044682264,-7.210998131260276
1684252529232371500,7.654371337890625,-1.4210405183672905,0.5998427929371595,-7.81920426339507
1684252529242397200,7.664397216796875,-1.6101842030853033,1.1911018819242716,-7.742097642838955
1684252529252423200,7.674423095703125,-2.359108134943247,1.3039648755162954,-6.8323606332123274
1684252529262449200,7.68444921875,-3.7232863638818263,1.2597533933460712,-5.568346659812331
1684252529272475100,7.69447509765625,-4.737708321341872,0.8456132047623396,-4.458546804307401
1684252529282501000,7.704501220703125,-5.582620684358477,-0.0459492657482624,-3.9841953081279993
1684252529292527600,7.714527587890625,-6.764004889866709,-1.3331038762390612,-4.008563441187143
1684252529302553600,7.7245537109375,-7.314787007036805,-2.694217456910014,-4.399378868284821
1684252529312579600,7.73457958984375,-7.054172661823034,-3.9740322260320182,-5.104589915144444
1684252529322605600,7.74460546875,-6.554963495501876,-5.187287487575412,-5.686092164748906
1684252529332631600,7.754631591796875,-6.207796071472764,-6.096494920369983,-5.8742240420758725
1684252529342657500,7.764657470703125,-6.153952837604284,-6.613577012512088,-5.810550319066643
1684252529352683500,7.77468359375,-6.092513741779327,-6.7314581265270705,-5.682752206671237
1684252529362709800,7.784709716796875,-5.919807397121191,-6.653941171604394,-5.390734422934055
1684252529372735700,7.79473583984375,-5.285150480434298,-6.647730042004585,-5.008779178640246
1684252529382761700,7.80476171875,-4.111719279757142,-6.944914999246597,-4.528184111896157
1684252529392787700,7.81478759765625,-2.1780258838668463,-7.696369910886883,-3.997908776181936
1684252529402813700,7.824813720703125,1.6061889959692954,-8.699160467264056,-3.309657924212515
1684252529412839700,7.834839599609375,32.46364432692528,-5.425417613780498,2.726637086738646
1684252529422865700,7.84486572265625,57.600582660961145,20.034123027348517,16.452341229653356
1684252529432891600,7.8548916015625,-6.884034706348181,32.26916921805143,23.331801467692852
1684252529442917600,7.864917724609375,-31.36665806802511,34.85795821528435,7.603374231803417
1684252529452943600,7.874943603515625,-20.923606353497505,33.13192586531639,-6.1798471573174
1684252529462969600,7.884969482421875,13.75029760916233,17.921202652859687,-6.154179047575592
1684252529472995800,7.894995849609375,1.5684636609479785,6.066106796368956,-1.0862963764511049
1684252529483021800,7.905021728515625,-8.199380807578564,-1.5527408988982438,-0.49683191579580305
1684252529493047800,7.9150478515625,6.598376520770787,-11.344510725152492,-0.11982048457972705
1684252529503073800,7.92507373046875,5.661009161418676,-11.972504676818847,-2.584549459967017
1684252529513099800,7.935099853515625,-1.2456231611847877,-6.285272109863162,-5.900939615043997
1684252529523125800,7.945125732421875,-4.839275721676647,-2.893726468297839,-6.589467822650074
1684252529533151700,7.95515185546875,-4.940064538854361,-0.8472831838011741,-6.77295625808537
1684252529543177700,7.965177734375,-3.9550937168061733,1.575659417670965,-6.472550000709295
1684252529553203500,7.975203369140625,-2.9290830283612013,3.7562756102919574,-4.745613395377993
1684252529563229400,7.9852294921875,-1.6288684452891349,3.8623534737884997,-2.266678273048997
1684252529573255400,7.99525537109375,-0.08850684323161839,2.4470348401993514,-0.26289935087841004
1684252529583281700,8.00528173828125,1.7461713210247456,1.5717589031010866,1.026649790066108
1684252529593307600,8.0153076171875,2.9522867938160893,1.2544535333722828,1.754527645959705
1684252529603333600,8.025333740234375,2.3365691170074046,1.4419541270583867,2.1408631511643526
1684252529613359600,8.035359619140625,0.5665758986294269,2.031491214558482,2.118308789528906
1684252529623385600,8.045385498046874,-0.9304432591773569,2.5097598841816184,2.115164646284282
1684252529633411600,8.05541162109375,-1.4363902093209326,2.842686601412296,2.4553376813814043
1684252529643437600,8.0654375,-1.2108381173990665,2.9448446611166,3.107741559422016
1684252529653463600,8.075463623046875,-0.5832150448717176,2.802197354635596,3.706821843554079
1684252529663489500,8.085489501953125,0.2712579043030739,2.3305045562714337,4.470391848140955
1684252529673515500,8.095515625,1.144370014430955,1.628588459303975,5.03933973659873
1684252529683541800,8.105541748046875,2.0314029517531393,0.6158218678355216,4.979485864138603
1684252529693567700,8.115567626953125,2.793467520213127,-0.6806289787888526,4.489579363691806
1684252529703593700,8.12559375,3.4586019927501677,-1.8809101924687623,3.7070571136146784
1684252529713619700,8.13561962890625,3.8155110585927963,-2.71444132977128,2.7582532912299036
1684252529723645700,8.145645751953126,3.788851015204191,-3.0481016219735144,1.9325640995994209
1684252529733671700,8.155671630859375,3.2604362126648425,-2.9336048896998164,1.2141683578003197
1684252529743697700,8.16569775390625,2.4113036016047,-2.61716285880208,0.6505610997181386
1684252529753723600,8.1757236328125,1.4452835637420416,-2.2721681026369334,0.24732670135647056
1684252529763749600,8.18574951171875,0.5659884541302919,-1.9448118790149687,-0.1404364711642731
1684252529773775600,8.195775634765624,0.044031467694509774,-1.616637324747443,-0.4344446524005383
1684252529783800600,8.205800537109376,-0.1367155783444643,-1.3527315367728472,-0.7028453406415879
1684252529793827800,8.215827880859376,-0.21635138858463615,-1.1814853277951478,-0.8597804079331457
1684252529803852500,8.2258525390625,-0.22056403784360734,-1.0757383036881685,-0.8570560975357889
1684252529813878800,8.235878662109375,-0.12267536255419254,-0.9376707262128591,-0.6150684191197157
1684252529823904800,8.24590478515625,-0.17320665886308997,-0.830847012785077,-0.29992939711194483
1684252529833930800,8.2559306640625,-0.540372330304049,-0.8023422183126211,0.03390676311384886
1684252529843956700,8.265956787109374,-0.8966974953114986,-0.8525655081182718,0.4946633030524477
1684252529853982700,8.275982666015626,-0.5127378889253362,-0.9800801273971795,0.9379173944503069
1684252529864008700,8.2860087890625,-0.2988987206236459,-1.1211042165905236,1.1772484939429908
1684252529874034700,8.29603466796875,-0.3906792334973812,-1.1698130101799964,1.059171345899254
1684252529884060700,8.306060791015625,-0.41056580069568005,-1.2214993582755327,0.8341489769399165
1684252529894086700,8.316086669921875,-0.3044119858860969,-1.2210785025149584,0.4709775992995128
1684252529904112600,8.326112548828124,-0.29550911471797153,-1.2138304310828447,-0.11176504228748381
1684252529914138600,8.336138671875,-0.2914735573252663,-1.1488526397377252,-0.7539088806636631
1684252529924164900,8.346164794921876,-0.10197039164509623,-0.9538467849880456,-1.3538400825366377
1684252529934190800,8.35619091796875,0.3000887889247387,-0.5835597666561603,-1.8429139315515755
1684252529944216800,8.366216796875,0.8257176870726048,-0.23629472747147082,-2.123175518782437
1684252529954242800,8.376242919921875,1.3508289180219173,0.030908348482847212,-2.1906214538067577
1684252529964268800,8.386268798828125,1.8988620287448166,0.24092881701290605,-2.1410567740403113
1684252529974294800,8.396294677734375,2.639661690858006,0.3943780880153179,-2.1036174163535235
1684252529984320800,8.40632080078125,4.727770572434365,0.4593973804146051,-2.1102853498101233
1684252529994346500,8.416346435546876,9.641640055063366,0.2032961287111044,-1.7467517512612043
1684252530004372500,8.42637255859375,11.221251425230502,-0.06244914965033531,-0.8500310212045907
1684252530014398500,8.4363984375,8.68878286563456,0.2443728199869394,-0.49243689570724963
1684252530024424400,8.446424560546875,5.305523406377435,0.9090314917057752,-0.5393528875958175
1684252530034450700,8.45645068359375,3.3625033792153,0.9307944107025862,-0.32461905374303457
1684252530044476700,8.4664765625,2.6430215226799247,0.5060270296424627,0.16403057851046324
1684252530054502700,8.476502685546874,2.0571511409938332,0.320163681769371,0.5259636099949478
1684252530064528600,8.486528564453126,1.6891531103819608,0.32359950143694877,0.8191028720427304
1684252530074554600,8.4965546875,1.597242450056225,0.6298918942421674,1.1822099888078867
1684252530084580600,8.50658056640625,1.4365988836355505,1.519819457027316,1.534672450505197
1684252530094606600,8.516606689453125,1.218511282375455,3.0892385190039873,2.0162699722900985
1684252530104632600,8.526632568359375,0.777597726221755,5.042437118092179,2.719044147391617
1684252530114658600,8.536658447265625,0.0920247882246971,6.971891268977522,3.315751272651553
1684252530124684500,8.5466845703125,-0.9266273541510105,8.134937853762507,3.4503894602000713
1684252530134710500,8.55671044921875,-2.000075501075387,8.115045989334583,2.849562916922569
1684252530144736800,8.56673681640625,-2.6702339392542838,6.749545571881533,1.4823209164991975
1684252530154762800,8.5767626953125,-2.6634581615090367,4.444076088145375,0.16704218141660093
1684252530164788700,8.586788818359375,-2.4405543921388686,1.9076468082249163,-1.0371312173962592
1684252530174814700,8.596814697265625,-2.4239853885233402,-0.421468924036622,-2.0893834315568207
1684252530184840700,8.6068408203125,-2.3898703529536722,-2.490615038728714,-3.064068421912193
1684252530194866700,8.61686669921875,-1.8932173008561133,-3.6834979588508605,-4.304090694350004
1684252530204892700,8.626892578125,-1.3297360072411597,-4.142496110814809,-5.293643583491444
1684252530214918700,8.636918701171876,-0.009719649177417158,-4.179827770343422,-6.071007427892089
1684252530224944600,8.646944580078125,2.6185584048137067,-3.7988784882217645,-6.686089291015267
1684252530234970600,8.656970703125,3.541312716923654,-3.101559071394801,-6.205106686258316
1684252530244996600,8.66699658203125,2.2809587273359297,-1.7061995222508906,-4.589821652902662
1684252530255022800,8.67702294921875,0.017833908984810114,0.08563654849231242,-3.4193174455881117
1684252530265048800,8.687048828125,-2.429644875589758,1.8250059344172476,-3.1352325006768105
1684252530275074800,8.69707470703125,-4.239198243200779,3.562389114961028,-3.1505624640166756
1684252530285100800,8.707100830078126,-5.500910953921079,5.249567710399627,-2.8228458826497196
1684252530295126500,8.71712646484375,-5.178630133867263,6.82657503554821,-1.8154264974281191
1684252530305152500,8.727152587890625,-2.086704859997332,8.025926274901629,0.3813258603490889
1684252530315178500,8.737178466796875,0.5199065019130706,8.613507552158833,2.6649749958127735
1684252530325204500,8.74720458984375,0.3291132964223623,8.555759127545356,4.891612642635405
1684252530335230500,8.75723046875,-1.7196558006733655,7.900863140428066,6.299937179553508
1684252530345256400,8.76725634765625,-4.499023776124417,6.417492714875936,6.6475178605586285
1684252530355282400,8.777282470703126,-5.363869796884059,4.169880961346626,5.321875406241417
1684252530365308400,8.787308349609376,-6.0265843487977975,2.590709736162424,3.4069065845653412
1684252530375334400,8.79733447265625,-5.303146740373969,1.5211118349254131,1.9552550932265818
1684252530385360400,8.8073603515625,-3.6377795792490244,0.6225549754828215,0.9719637486979364
1684252530395386400,8.817386474609375,-2.571350955697894,-0.7826578591555357,-0.6891463395044207
1684252530405411600,8.82741162109375,-1.5777701262146233,-2.3110715415269136,-3.474088607956469
1684252530415437600,8.8374375,-1.3689800762623547,-3.369467080748081,-6.047908876377344
1684252530425463600,8.847463623046876,-2.4293293798997997,-4.148478692355752,-7.527942850983142
1684252530435489500,8.857489501953125,-3.662608900079131,-4.662518348062038,-8.2250869112432
1684252530445515500,8.867515625,-4.0000083788096905,-5.0224453004211185,-8.161911785405874
1684252530455541200,8.877541259765625,-3.7351153333634137,-5.2082952042907475,-7.346244221574068
1684252530465567200,8.887567138671875,-3.633391865684092,-5.069293560835719,-6.385705245471001
1684252530475593200,8.89759326171875,-3.7453321914732456,-4.664235088852048,-5.768539561811089
1684252530485619200,8.907619140625,-4.161747046990692,-4.267005703058839,-5.418782121288776
1684252530495645400,8.9176455078125,-4.649448438608646,-4.035777026805281,-5.019447872170805
1684252530505671400,8.92767138671875,-4.224669367110729,-4.036127155417204,-4.659290033665299
1684252530515697400,8.937697509765625,-2.761536258423328,-4.222256460750103,-4.101189117914438
1684252530525723400,8.947723388671875,-0.8952543107658624,-4.491783011215925,-2.99292392463088
1684252530535749400,8.957749267578125,0.14981851328462362,-4.638124496039748,-1.1523634243376553
1684252530545775400,8.967775390625,-0.11799655708819627,-4.6259261087238785,0.7082708728216588
1684252530555801300,8.97780126953125,-1.0831982643052935,-4.3347956292152405,1.7159475938051938
1684252530565827300,8.987827392578126,-1.9981334270969031,-3.8996594143539665,1.9796037909328936
1684252530575853300,8.997853271484376,-2.2594690723225472,-3.40546427680254,1.6388453571632504
1684252530585879300,9.00787939453125,-1.7841829256415367,-3.0866192764163016,0.34715485680848357
1684252530595905300,9.0179052734375,4.061521708914637,-2.703262933152914,0.5434653644159436
1684252530605931500,9.027931640625,17.994186056005955,-0.6242015736460685,3.975273166003823
1684252530615957500,9.03795751953125,15.245895063602923,1.7504986827045679,1.5619626084908842
1684252530625983500,9.0479833984375,4.009096525150537,2.4206162043511865,-5.006652688005566
1684252530636009500,9.058009521484376,-1.8920739760398864,2.609792622295022,-9.793377845972776
1684252530646035500,9.068035400390626,2.811222957134247,5.1203334277212615,-13.687627510237693
1684252530656061400,9.0780615234375,6.1453428301692,10.156296965885161,-16.49579341788888
1684252530666087400,9.08808740234375,-2.9461504830181595,11.438033058458567,-13.8697890809834
1684252530676113400,9.098113525390625,-10.477072057551146,9.491291672685742,-7.159540915745496
1684252530686139400,9.108139404296875,-9.938741425675152,9.117968063136935,-2.201315427909046
1684252530696165400,9.118165283203124,-6.63936553376317,9.291687968751788,0.9263400616422295
1684252530706191400,9.12819140625,-4.493888459062576,8.690572087138891,2.3360063685581087
1684252530716217600,9.138217529296876,-3.9766099675655364,7.923858231568336,2.6006521612450477
1684252530726243600,9.14824365234375,-4.767507831799984,7.655785387042164,1.7067063027292488
1684252530736269600,9.15826953125,-5.740761328047514,7.925247640100121,-0.1810973025150597
1684252530746295600,9.168295654296875,-5.781302597272396,7.753229277706146,-1.4099854558676481
1684252530756321500,9.178321533203125,-4.996777190679311,6.841725842928886,-1.200297288031876
1684252530766347500,9.188347412109374,-3.84569810706377,5.549115305119752,-0.7009802774220705
1684252530776373500,9.19837353515625,-2.4746049841701985,3.33425782020092,-0.2612041278004646
1684252530786399500,9.2083994140625,-2.3127426896095273,1.7897703703850507,0.42824689373895525
1684252530796425200,9.21842529296875,-2.2854349959671496,1.3732681288450956,1.1842635603368281
1684252530806451200,9.228451171875,-1.8415660240739582,1.2995499816834926,2.1233461991742253
1684252530816477200,9.238477294921875,-1.058127828195691,1.32823831602931,3.2274592412143943
1684252530826503400,9.24850341796875,-0.00263210206925869,1.6707108602404594,4.255919076377153
1684252530836529400,9.258529296875,1.036942562956363,1.736643175831437,5.070445068958401
1684252530846555400,9.268555419921874,1.9068582881957292,1.2358487861454486,5.713850524768233
1684252530856581400,9.278581298828126,2.576574243304133,0.2068675574570894,5.768558851033449
1684252530866607400,9.288607421875,2.892068764218688,-1.5893331382364033,5.261894108009338
1684252530876633300,9.29863330078125,2.2922885151237247,-3.714167237880826,5.227414915302395
1684252530886659300,9.308659423828125,3.3199019625902175,-5.159065017175674,4.748907760748267
1684252530896685300,9.318685302734375,5.705908041331171,-5.746939139899611,6.066807638114691
1684252530906711300,9.328711181640625,7.348745975261926,-4.714551902160048,9.065872549718618
1684252530916737300,9.3387373046875,6.813751794332266,-3.0055957746773956,10.126184736216068
1684252530926763300,9.34876318359375,3.7501939522907137,-1.5198539438188075,10.65709194009304
1684252530936789500,9.35878955078125,1.7740204280674456,-0.522557893204689,11.951101823306082
1684252530946815500,9.3688154296875,0.6686546094872057,0.054545829179883,12.743449301826953
1684252530956841500,9.378841552734375,-0.8345259935587644,-0.3042214317500591,12.75263097167015
1684252530966867500,9.388867431640625,-1.9983822872914372,-1.9310428813815115,11.884196278768776
1684252530976892400,9.398892333984374,-2.801214773339033,-3.5421512135744093,11.357269668960571
1684252530986918400,9.40891845703125,-2.1822030234210192,-3.514889697161317,11.185684437286852
1684252530996944400,9.4189443359375,0.5196116106197237,-2.7644062609016893,9.785267020231485
1684252531006970400,9.428970458984375,4.114649487990141,-2.89566415836215,7.635412461099028
1684252531016996400,9.438996337890625,14.888519549292326,-2.7568343643426894,4.389553639841079
1684252531027022300,9.449022216796875,23.62013208734989,-1.9647300469279287,2.4364015102431176
1684252531037048300,9.45904833984375,16.616021387290953,-2.139954511886835,3.1872762839078903
1684252531047074300,9.46907421875,12.648927436089515,-0.96618487303555,3.63047656275928
1684252531057100300,9.479100341796874,12.627912705111504,3.999743590393662,3.9015938895478843
1684252531067126500,9.48912646484375,10.566756420129536,10.666777467805147,4.6925969677224755
1684252531077152500,9.499152587890626,9.331794938212633,19.397259540528058,6.374047540903091
1684252531087178500,9.509178466796875,7.510176892668008,27.162498404979704,8.108563057056069
1684252531097204500,9.51920458984375,0.8042015824437141,28.684457796645162,7.22557435362339
1684252531107230500,9.52923046875,-5.180533337140083,25.660595128393172,2.4173541338153184
1684252531117256400,9.53925634765625,-7.644952442860603,22.035315549755094,-0.13656798656731844
1684252531127282400,9.549282470703124,-8.600768482095003,20.021880800890923,-2.50409674385339
1684252531137308400,9.559308349609376,-10.84594277934432,18.261982421678304,-3.1956600813716647
1684252531147334400,9.56933447265625,-14.215497538375853,17.97753536545634,-2.3659096316516397
1684252531157360400,9.5793603515625,-18.318654156970975,18.892369405961034,1.609731490881741
1684252531167386400,9.589386474609375,-22.970770353484152,16.745096680015326,7.875096246486902
1684252531177412600,9.59941259765625,-21.830742240715026,12.032884618979692,11.112181978702544
1684252531187438600,9.6094384765625,-14.073216727119684,5.367372252047062,6.175805772972106
1684252531197464600,9.619464599609374,-7.096027351734041,-0.5685895765393972,0.6435945486411452
1684252531207490600,9.629490478515624,1.508183964291215,-4.743175354576111,-1.0215987172216177
1684252531217516500,9.6395166015625,9.0398876291126,-6.597125643926859,-0.22128245177865027
1684252531227542500,9.64954248046875,6.076857907485961,-7.001152434775233,-0.182962657995522
1684252531237568300,9.659568359375,1.4479355395555495,-7.15007984443903,-1.1698775998488067
1684252531247594200,9.66959423828125,-2.462494859659672,-7.333759418532252,-2.702938231243193
1684252531257620200,9.6796201171875,-4.050976349502801,-7.289041740405559,-3.7536563677042722
1684252531267646200,9.689646240234374,-4.91815081321001,-7.164483632844686,-5.053714298909902
1684252531277672200,9.699672119140626,-5.0355871060669415,-7.379958275127411,-6.150638598489761
1684252531287698000,9.709697998046876,-4.753976442314684,-7.377619018524885,-6.818038677871227
1684252531297724000,9.719723876953125,-4.805502923673391,-7.138686343765259,-6.805747351574897
1684252531307750000,9.72975,-4.55156674104929,-6.681496702527999,-6.695566728934645
1684252531317776000,9.73977587890625,-3.668957392323017,-5.931289160600304,-6.592257745629548
1684252531327801900,9.7498017578125,-1.3545917776867746,-4.904951724418997,-5.780360347986221
1684252531337827800,9.759827880859374,-0.7543988561376929,-3.7652275630325076,-4.836400750762224
1684252531347853800,9.769853759765626,-2.600743346659839,-2.7427964866399765,-4.183393938392401
1684252531357879800,9.7798798828125,-4.053482194843888,-1.3874234954476357,-2.79570945392102
1684252531367905800,9.78990576171875,-3.4302170252650974,0.6194049870193005,-0.5718655294701457
1684252531377931800,9.799931884765625,-1.9030138877272604,2.7961913922190664,1.012808092522621
1684252531387957800,9.809957763671875,-0.9449807569652795,4.671423539051413,1.5875558994308112
1684252531397983700,9.819983642578125,-1.0136673397004603,6.303498086905479,1.2621107701271772
1684252531408010000,9.830010009765624,-2.1576544192284346,6.752684454429149,0.17459668844938278
1684252531418036000,9.840035888671874,-2.0032737125948072,5.328793222805857,-1.2023086278542876
1684252531428062000,9.85006201171875,-0.27648966747671366,2.810404041966796,-2.1060119102746246
1684252531438088000,9.860087890625,0.3931915085792541,0.652858343809843,-2.210231578683853
1684252531448114000,9.870114013671875,-0.3659150868579745,-0.8069464972376823,-2.129243732780218
1684252531458140000,9.880139892578125,-1.5730647250026464,-1.6919880415469406,-2.241600822676718
1684252531468166000,9.890165771484375,-2.6573385095849633,-2.1845547011137008,-2.657238264080882
1684252531478191900,9.90019189453125,-3.428222052055597,-2.3734300902843475,-3.0194243935436007
1684252531488217900,9.9102177734375,-3.846541864411533,-2.324446571406722,-3.1805724023550748
1684252531498243800,9.920243896484376,-3.824814601249993,-2.229930550888181,-3.154111680930853
1684252531508270000,9.93027001953125,-3.5133626337245105,-2.169713690334558,-3.008517507342994
1684252531518296000,9.940296142578125,-3.1845094495430586,-2.2237480628609654,-2.8498700831755994
1684252531528322000,9.950322021484375,-2.9005475464895367,-2.3047212957173584,-2.7443919391378757
1684252531538347000,9.960346923828125,-2.6703403222382067,-2.2983973533928395,-2.7045167326062916
1684252531548373000,9.970373046875,-2.4843966026052833,-2.1940929293096065,-2.6105747125834227
1684252531558399000,9.98039892578125,-2.4492189062401652,-2.052579010772705,-2.485962244486809
1684252531568425000,9.990425048828126,-2.5586954722642896,-1.9578987396031617,-2.367749998821318
1684252531578451000,10.000450927734375,-2.605614167566597,-2.003173467090726,-2.0454855453804135
1684252531588477000,10.010476806640625,-2.7008523648798466,-1.9096084636867046,-1.6860291331425308
1684252531598503000,10.0205029296875,-2.805900008545816,-1.8436545207858084,-1.0634212584286928
1684252531608529000,10.03052880859375,-2.7966283223316073,-1.579319109222293,-0.4327184861950576
1684252531618555000,10.040554931640624,-2.7056208944559095,-1.117442186951637,0.33986557658314703
1684252531628580900,10.050580810546874,-2.5266999130666252,-0.7599222957342863,1.2220621067248285
1684252531638607000,10.060607177734376,-2.26987063934952,-0.5376508329182863,1.9304124745234845
1684252531648633000,10.070633056640625,-1.8436729332253337,-0.2068506063222885,2.599646783594787
1684252531658659000,10.0806591796875,-1.2244225522458552,0.45174540435671806,3.278760973906517
1684252531668685000,10.09068505859375,-0.660339054954052,1.2760317434519528,4.119069057998061
1684252531678711000,10.1007109375,-0.16425079713240265,2.3770494498252868,5.222970795375108
1684252531688737000,10.110737060546874,0.03263283418789506,3.5804917578846216,6.531032584816217
1684252531698763000,10.120762939453124,-0.4206850801825523,5.7116585676819085,7.852997227403521
1684252531708789000,10.1307890625,-1.0006137968599795,9.802742471167445,8.910256456071139
1684252531718815000,10.14081494140625,1.0011293451666832,16.482331878769397,8.677764043492079
1684252531728840700,10.1508408203125,13.44698920060396,24.48573886334896,4.076434615886211
1684252531738866700,10.16086669921875,8.173567736408113,19.826213267362117,-0.16444580824784932
1684252531748893000,10.170892822265625,8.848768260407446,13.629320282697677,-4.657546989390254
1684252531758919000,10.1809189453125,18.39307665300965,6.995904012727737,-11.121733066380024
1684252531768945000,10.19094482421875,17.156701797163485,2.345118188035488,-11.508235306453704
1684252531778971000,10.200970947265626,7.641252419298887,0.9456091179966926,-7.583715591609478
1684252531788996900,10.210996826171876,0.941453167361021,-0.05950315932631492,-4.742870818671584
1684252531799022800,10.22102294921875,-1.25574591127038,-1.6896517075538635,-3.2296769172638653
1684252531809048800,10.231048828125,-0.9683364981114864,-3.713645259833336,-2.2017764695495368
1684252531819074800,10.24107470703125,-1.318585521543026,-5.489860567596555,-1.1071545286279172
1684252531829100800,10.251100830078125,-1.8856337138593195,-6.693085433512926,-0.32964418842867016
1684252531839126800,10.261126708984374,-2.8779344404041765,-7.253998484075069,0.5535543583624064
1684252531849152800,10.27115283203125,-4.04861020489335,-7.0716931209444995,1.5378078259214758
1684252531859179000,10.281178955078126,-5.274076128712296,-6.267386909082531,2.9464094262152907
1684252531869205000,10.291205078125,-5.55676669665575,-5.3542807152837515,4.576193232783675
1684252531879231000,10.30123095703125,-5.507278735387325,-4.498107538062333,5.8461564699769015
1684252531889257000,10.311257080078125,-5.386881254637241,-3.320740166980028,6.802922941803931
1684252531899283000,10.321282958984375,-5.937835221242905,-1.9152707272320986,7.758857054460048
1684252531909309000,10.331308837890624,-6.082528938859701,-0.6092512572735548,7.551423095291852
1684252531919335000,10.3413349609375,-4.845112757267057,0.29825054064691064,6.226682558250427
1684252531929361000,10.35136083984375,-3.5230759262263773,0.8342623741865157,4.754578207600116
1684252531939387000,10.361386962890625,-2.7713936355710027,1.3829641779512165,3.537745087569952
1684252531949412900,10.371412841796875,-1.9603858802437781,2.070540783920884,2.535205291083455
1684252531959438800,10.38143896484375,-1.4557400758266448,2.695869900292158,1.8312933441236614
1684252531969465000,10.391465087890625,-1.3026736666619776,3.09734642213583,1.4262744734980166
1684252531979491000,10.401490966796874,-1.2898422421395779,3.1309137606948614,1.223012539317459
1684252531989517000,10.41151708984375,-1.3590601552724837,2.7205764715254306,1.0309507021304218
1684252531999543000,10.42154296875,-1.154044947683811,2.112448080801964,0.9413101786937564
1684252532009569000,10.431569091796876,-0.7519558468997478,1.3929472273051737,0.8536529380287975
1684252532019595000,10.441594970703125,-0.3395119408398867,0.6373942326962947,0.28352119181500746
1684252532029621000,10.45162109375,0.1778887157320976,0.029923429098725318,-0.41767866490818556
1684252532039647000,10.46164697265625,0.815941631532833,-0.2028764419943094,-0.9276397460639476
1684252532049673000,10.4716728515625,1.6549790381014347,0.04184124590754509,-1.3961390090838073
1684252532059698000,10.481697998046876,4.317148913365602,0.4726981760144233,-2.4625530195876952
1684252532069724000,10.491723876953126,7.851215020161867,0.6467641185879707,-3.941110784161091
1684252532079750000,10.50175,7.142706100800633,0.4456733909666538,-4.206228578273952
1684252532089775900,10.51177587890625,3.83055431394577,0.4082634055048227,-2.8201734485700727
1684252532099802000,10.521802001953125,1.6384415986679493,0.10337620332241058,-1.5051897509112953
1684252532109828000,10.531828125,0.9232694220252334,-0.32075638696551323,-0.8596168148692697
1684252532119854000,10.54185400390625,0.7012620169728994,-0.6797697316110134,-0.611081577973254
1684252532129880000,10.551880126953124,0.4918472592510283,-1.0043512298226356,-0.3978562124546617
1684252532139906000,10.561906005859376,0.3068902125678956,-1.2464140193015336,-0.1308564039874822
1684252532149932000,10.57193212890625,0.048642815681174394,-1.3581670058250426,-0.06968564024250953
1684252532159957800,10.581957763671875,-0.19041458143666384,-1.41205174074769,0.14438764734230936
1684252532169983700,10.591983642578125,-0.3362666022431105,-1.4236796346992253,0.4406459547260776
1684252532180009700,10.602009765625,-0.8739088134635239,-1.3696347407788036,0.7213849136777222
1684252532190035700,10.61203564453125,-1.2877087372422218,-1.4447411274284123,0.9314343160413205
1684252532200061700,10.622061767578124,-1.2735684220783412,-1.5832494344085455,1.0451336873922497
1684252532210088000,10.632087890625,-1.0655787287235259,-1.6644985615968704,1.2152768304988741
1684252532220114000,10.642114013671875,-0.7733598694562912,-1.7632833454757928,1.0376588945321739
1684252532230140000,10.652139892578125,-0.5678337166707963,-1.7566905230820178,0.7940200148429721
1684252532240166000,10.662165771484375,-0.31849706373140213,-1.6237538787543773,0.602024630488269
1684252532250192000,10.67219189453125,0.001724412639811635,-1.2582546792209148,0.4546393356999382
1684252532260217900,10.6822177734375,0.37679800766110416,-0.7129699904233217,0.3794446497123688
1684252532270243800,10.692243896484374,0.8537308986358344,-0.1458171686887741,0.4901023152798414
1684252532280269800,10.702269775390626,1.395601687336713,0.3232756763100624,0.702350104470551
1684252532290296300,10.71229638671875,1.8134195415198802,0.6273147372305393,0.9231158388987183
1684252532300322300,10.722322265625,2.122652371691167,0.6507669244885445,1.0807535015016794
1684252532310348500,10.7323486328125,2.41817611772269,0.40227556326687336,1.0746874794609844
1684252532320374500,10.74237451171875,2.751184083496034,0.0017956512451171875,1.0285356038127094
1684252532330400500,10.752400390625,3.1303818457752466,-0.45439270399510856,0.79601966422759
1684252532340426500,10.762426513671874,3.621203122979402,-0.6702227355867624,0.27378665559571236
1684252532350452500,10.772452392578124,4.552447615537047,-0.6863304053008557,-0.5304000580724328
1684252532360478500,10.782478515625,8.957979161232709,-0.30534780543148515,-2.342682777582109
1684252532370504400,10.79250439453125,14.316490061432122,0.027442718198895454,-4.505625366346538
1684252532380530400,10.802530517578125,11.902677691876887,-0.09143909729123115,-4.721518234041333
1684252532390556400,10.812556396484375,6.227026841643452,-0.03939735988676548,-3.001236410424113
1684252532400582400,10.82258251953125,2.8580151034474373,0.5372738162994385,-0.7210914836890995
1684252532410608400,10.8326083984375,1.6754193301923572,1.2207388952970504,0.5021136555910111
1684252532420634600,10.842634521484374,0.9011837008148431,2.022724555256963,1.4121367886826395
1684252532430660600,10.85266064453125,-0.5859807101927698,4.491380860155821,2.175915759845078
1684252532440686600,10.8626865234375,-2.461850132015347,8.185300844299793,2.9590806917399166
1684252532450712300,10.87271240234375,-4.16584425317645,11.913716972285508,3.2522426770761608
1684252532460738300,10.88273828125,-7.420022574490308,15.384224506884813,2.515022334754467
1684252532470764300,10.892764404296875,-8.720803559273481,16.703468200075626,1.0703688125442712
1684252532480790300,10.902790283203124,-9.15971520102024,15.071470224589108,-0.30475130084306
1684252532490816300,10.912816162109374,-8.087271847224235,11.057226399677992,-0.9532079025626182
1684252532500842200,10.92284228515625,-6.066756200188398,6.415750255122781,-0.7313336223706602
1684252532510868200,10.9328681640625,-4.340091397535801,2.3547721515655518,-0.24549700171127914
1684252532520894200,10.942894287109375,12.837436914557218,-1.284931089222431,0.26173501980677244
1684252532530920400,10.95292041015625,14.579362414705752,-3.5868379120409486,0.7484005655709653
1684252532540946400,10.962946533203125,4.5590357617557045,-4.1487458188593385,0.5944440026335418
1684252532550972400,10.972972412109375,-0.1969227942869067,-3.2558518074840306,-0.85306322850734
1684252532560997400,10.982997314453126,-5.70346766244173,-1.4583230780571699,-2.1957839511364696
1684252532571023400,10.9930234375,-10.442537335264682,0.29609891557097434,-1.841891018244624
1684252532581049300,11.00304931640625,-13.78041802213788,1.2612310646831988,-0.7070422078095376
1684252532591075300,11.013075439453125,-13.188393209475278,2.304951597341895,0.6406576914716512
1684252532601101300,11.023101318359375,-5.674865837335586,3.8309728316187854,0.7118881865359843
1684252532611127300,11.033127197265625,0.12227379601597785,4.620158631238341,-0.23318987505761904
1684252532621153300,11.0431533203125,0.9201204564750194,3.9885757151693104,-0.3154459325324744
1684252532631179300,11.05317919921875,0.8432040977939963,2.3849323120296,1.5162690710693596
1684252532641205200,11.063205322265626,-0.04360591749250889,0.7974445093989372,3.6116558346942065
1684252532651231200,11.073231201171875,-1.6543293420210479,-0.7146054826706647,4.452868466410041
1684252532661257500,11.083257568359375,-2.9619214681237933,-2.168699544855952,3.423863856846094
1684252532671283500,11.093283447265625,-4.113022763571143,-3.185115306481719,1.909504711051285
1684252532681309400,11.103309326171875,-5.14879613661766,-3.828036193645,0.2873508513720706
1684252532691335400,11.11333544921875,-5.737119172152877,-4.2361090450137855,-1.0206983343157916
1684252532701361400,11.123361328125,-5.550728585535287,-4.485705737128853,-1.8583672290101647
1684252532711387400,11.133387451171876,-4.716666410095989,-4.697345915815234,-2.394521978151798
1684252532721413400,11.143413330078126,-3.30991949775815,-5.0843081746160985,-2.610498140215874
1684252532731439400,11.153439453125,-2.2697335689663887,-5.325676552090049,-2.8560876425161954
1684252532741465300,11.16346533203125,-2.4304250661820173,-5.289588170620799,-3.1514129433661697
1684252532751491300,11.1734912109375,-3.3566420859664676,-5.092710092258453,-3.608779402475059
1684252532761517600,11.183517578125,-4.018361489363015,-4.996862530875205,-4.329395523737371
1684252532771543600,11.19354345703125,-4.069826595923304,-5.043707284158468,-4.918034493353963
1684252532781569500,11.203569580078126,-3.9393727083221077,-5.073349558228254,-5.012398538181185
1684252532791595500,11.213595458984376,-3.8116552599474787,-5.056086288738251,-4.664068207852542
1684252532801621500,11.22362158203125,-3.381272084832191,-5.008924140068888,-4.234745647706091
1684252532811647500,11.2336474609375,-2.889433447279036,-4.7416754714071745,-3.8064310955584046
1684252532821673500,11.243673583984375,-2.3280966183468697,-3.960250953438878,-3.5404312579140065
1684252532831699500,11.253699462890625,-1.3176368425160645,-2.6955051586329937,-2.7575521572232247
1684252532841725400,11.263725341796874,0.35169396154284477,-1.089301549616456,-1.3658169360563157
1684252532851751400,11.27375146484375,1.5849750891573726,0.5366016161262989,-0.0747539199501276
1684252532861777400,11.28377734375,2.037431710523367,1.8074661860734222,0.9431231463998555
1684252532871803600,11.2938037109375,2.05749250177741,2.8230285457402466,1.5801527835674583
1684252532881829400,11.303829345703125,1.908603232166916,3.869773979178071,1.7099116746418177
1684252532891855400,11.31385546875,1.792907645497471,4.694519752478599,1.6358726249627769
1684252532901881300,11.32388134765625,2.0183681136131284,5.531169898584484,1.3544244582958518
1684252532911907300,11.3339072265625,2.676256852805614,5.814534420266747,1.3280375327602028
1684252532921933300,11.343933349609374,3.567213174116611,5.393745295187831,1.969666334286332
1684252532931959300,11.353959228515626,4.3456911172389985,4.297288028597832,2.994940525150299
1684252532941985300,11.3639853515625,4.866120181721449,3.365281904017925,4.0900446235656736
1684252532952011300,11.37401123046875,4.5866053212046625,2.855191862720251,4.868810735979676
1684252532962037200,11.384037353515625,4.204306962561607,2.354395134946704,5.05336475481987
1684252532972063200,11.394063232421875,3.842517138940096,1.8982237308412788,5.053652339589595
1684252532982089500,11.40408935546875,3.586031271833181,1.7352911767005919,4.989473589667678
1684252532992115500,11.414115478515624,3.606440438133478,1.9686241317570208,4.601718134662509
1684252533002141400,11.424141357421876,3.218239577448368,3.2054467313706874,3.3962890367001295
1684252533012167400,11.43416748046875,2.263479184746742,4.172352319896221,1.746145748192072
1684252533022193400,11.444193359375,0.9852440860316157,4.935953596404195,-0.6738060009010136
1684252533032218400,11.45421826171875,-1.5354666696228085,2.151957084369659,-2.9178134463280436
1684252533042244400,11.464244384765625,-4.4564758432522416,0.5544926621258258,-5.475614600101113
1684252533052270300,11.474270263671874,-6.825151140224933,-1.3079039685308933,-6.885650324851274
1684252533062296300,11.48429638671875,-8.269163368856907,-2.518705407181382,-6.7785518861353395
1684252533072322300,11.494322265625,-8.456896602255105,-1.7807570428460835,-6.215597100612521
1684252533082348300,11.504348388671875,-8.338294772750139,-1.349883746126294,-4.53414565064907
1684252533092374300,11.514374267578125,-9.219282657754421,-2.2751602701902387,-2.8361007932811972
1684252533102400300,11.524400146484375,-7.069730296438932,-2.2591478775441645,-4.0286128342643375
1684252533112426500,11.534426513671875,-6.043018766248226,-1.288802962219715,-5.957361174967884
1684252533122452500,11.544452392578124,-6.4473366489976645,-0.10560440076589583,-6.5149886279880995
1684252533132478500,11.554478515625,-6.966745722782611,1.0664362223356962,-5.194761184456945
1684252533142504400,11.56450439453125,-6.94485303992629,2.78072435849607,-3.5510990746617317
1684252533152530400,11.574530517578125,-6.408854650390148,3.9436043545424937,-1.8114840434126556
1684252533162556400,11.584556396484375,-5.880953058069944,4.0181554453969,-0.565712267537415
1684252533172582400,11.59458251953125,-4.072783107641339,4.3636119738548995,0.25015870991200206
1684252533182608400,11.6046083984375,15.440601643145083,3.292880684673786,4.72259521562308
1684252533192634400,11.61463427734375,31.43702281310558,-4.879492288991808,7.636128500413895
1684252533202660400,11.624660400390624,13.555861078733205,-2.9789246253728865,4.3871047853842375
1684252533212686300,11.634686279296876,3.6350633060276505,0.4959802674025297,1.639872069862485
1684252533222712600,11.644712646484376,-3.295366071748733,-0.2005950530588627,-0.1228662089511752
1684252533232738600,11.654738525390625,-5.503723673254251,-0.25533085185289384,-2.52334388063699
1684252533242764500,11.6647646484375,-5.6356122698336835,0.6754466077148914,-2.079317087833583
1684252533252790500,11.67479052734375,-4.251194970464706,0.7982301068186759,0.02783668595254421
1684252533262816500,11.68481640625,-2.970273701405525,1.0874614747077227,2.9555484259605405
1684252533272842500,11.694842529296874,-1.7296137155860662,0.20090426513850687,4.05402784602791
1684252533282868500,11.704868408203126,-0.654922875124216,0.18442133237123487,3.527544596073031
1684252533292894700,11.714894775390626,-0.4058650756588206,0.7455360429853201,2.9776915764465928
1684252533302920700,11.724920654296875,-0.7901648737847805,1.0090402644217014,2.857000373446941
1684252533312946700,11.73494677734375,-1.0968401284277438,1.309338969770074,2.8150007221072912
1684252533322972700,11.74497265625,-1.1085270590901375,1.252602937069535,1.9088861407615243
1684252533332998700,11.75499853515625,-0.7996346398543566,1.38844114805758,0.5654714445188641
1684252533343024600,11.765024658203124,0.019688450810313222,2.356326979792118,-0.2628663619242608
1684252533353050600,11.775050537109376,1.8088105864197015,3.6132168004006147,-1.1247015104301272
1684252533363076900,11.785076904296876,4.786514145565032,4.7385950410485265,-1.120894007905945
1684252533373102800,11.795102783203125,4.49901120890379,4.675818559139967,0.4886185429954901
1684252533383128800,11.80512890625,3.2653818523734808,3.8468729960620403,0.28963490718863905
1684252533393154800,11.81515478515625,2.591629773616791,4.107427720043063,-0.214543279716745
1684252533403180800,11.825180908203125,2.546632109504938,5.5312780351340765,0.39014552847947925
1684252533413206800,11.835206787109374,2.30035433267951,6.173550687521696,0.97440273934789
1684252533423232800,11.845232666015624,1.569658131429553,6.550203149232268,1.1188071916945277
1684252533433258800,11.8552587890625,1.1593915694087744,7.39085084054172,0.14089666342139243
1684252533443284700,11.86528466796875,1.0125766218543053,8.3787635612607,-0.713552320355922
1684252533453310700,11.875310791015625,0.7715899371743202,9.474618185782433,-1.5019909548699855
1684252533463335700,11.885335693359375,-0.26681316332127897,9.391776236444711,-2.7408456448331475
1684252533473363000,11.895363037109375,-1.778050121974945,8.7928488047868,-3.2099279684379693
1684252533483387600,11.9053876953125,-3.2799884698748585,8.664843771642445,-3.191836139169335
1684252533493414000,11.915413818359376,-4.944545483660698,7.8450939069330685,-3.0134508720919486
1684252533503440000,11.92543994140625,-6.660294924545288,5.72881311610043,-2.8130823212653397
1684252533513465900,11.9354658203125,-8.116454687088728,4.7314001611083745,-2.994785042327642
1684252533523491800,11.945491943359375,-8.783329865813254,3.812041921177506,-2.753552858453989
1684252533533517800,11.955517822265625,-8.50854963260293,3.019362434223294,-2.5100427927762268
1684252533543543800,11.965543701171875,-7.467774505746364,2.4147622176259755,-2.2576818966448307
1684252533553569800,11.97556982421875,-5.445440995633602,1.6772469840109347,-1.5955606344491242
1684252533563595800,11.985595703125,0.16913433139026163,1.0686807863920926,-1.8293372416198252
1684252533573621800,11.995621826171876,17.63364710922837,-0.9016898967713117,-4.155039366045594
1684252533583647700,12.005647705078125,16.58152758153677,-1.7511878340125082,-4.111689469140768
1684252533593673700,12.015673828125,0.47488545692563056,0.060515551239252084,-1.1257225240409374
1684252533603700000,12.025699951171875,-1.4199977313160896,-0.6035790568560362,-0.34268121852576733
1684252533613726000,12.035725830078125,0.9987241106558591,-0.7196352935314178,-2.473234864860773
1684252533623752000,12.045751953125,2.8086218347251415,-0.2814659945845604,-3.8511411749005315
1684252533633778000,12.05577783203125,4.1157881366312505,-1.2195511468172073,-4.319481155705452
